prolific_id,query_stimulus,ref_left_stimulus,ref_right_stimulus,ref_left_y_offset,ref_right_y_offset,rt,response,trial_stage,trial_type,trial_index,time_elapsed,internal_node_id,session,correct,correct_response,query_item,ref_left,ref_right,dist_query_ref_left,dist_query_ref_right,dist_ref_left_ref_right,abs_dist_query_ref_left,abs_dist_query_ref_right,abs_dist_ref_left_ref_right,triplet_left_right_name,ref_lowdim,ref_highdim,dist_query_ref_lowdim,dist_query_ref_highdim,dist_ref_lowdim_ref_highdim,dist_abs_query_ref_lowdim,dist_abs_query_ref_highdim,dist_abs_ref_lowdim_ref_highdim,triplet_unique_name,template_distances,template_abs_distances,triplet_rep,template_distances_rep,triplet_easiness,query_position,chosen_ref_value,chosen_ref,correct_ref_lowdim_highdim,correct_ref_left_right,correct_numeric,qc_pass
perfect_responder,./img/object-9_120-levels_1D/object9F0Level114F1Level40.png,./img/object-9_120-levels_1D/object9F0Level84F1Level40.png,./img/object-9_120-levels_1D/object9F0Level104F1Level40.png,0,0,1811.0999999996275,p,practice,triplets-canvas-keyboard-response,1,3818,0.0-1.0-0.0,1,True,p,114,84,104,30,10,-20,30,10,20,114_84_104,84,104,30,10,-20,30,10,20,114_84_104,30_10_-20,10_30_20,1,1,20,query_right,104.0,ref_highdim,ref_highdim,ref_right,1.0,1
perfect_responder,./img/object-9_120-levels_1D/object9F0Level24F1Level40.png,./img/object-9_120-levels_1D/object9F0Level34F1Level40.png,./img/object-9_120-levels_1D/object9F0Level74F1Level40.png,0,0,1429.5,q,practice,triplets-canvas-keyboard-response,2,6326,0.0-1.0-0.1,1,True,q,24,34,74,-10,-50,-40,10,50,40,24_34_74,34,74,-10,-50,-40,10,50,40,24_34_74,-10_-50_-40,10_50_40,1,1,40,query_left,34.0,ref_lowdim,ref_lowdim,ref_left,1.0,1
perfect_responder,./img/object-9_120-levels_1D/object9F0Level74F1Level40.png,./img/object-9_120-levels_1D/object9F0Level84F1Level40.png,./img/object-9_120-levels_1D/object9F0Level24F1Level40.png,0,0,1516.5,q,practice,triplets-canvas-keyboard-response,3,8834,0.0-1.0-0.2,1,True,q,74,84,24,-10,50,60,10,50,60,74_84_24,24,84,50,-10,-60,50,10,60,74_24_84,50_-10_-60,10_50_60,1,1,40,query_middle,84.0,ref_highdim,ref_highdim,ref_left,1.0,1
perfect_responder,./img/object-9_120-levels_1D/object9F0Level54F1Level40.png,./img/object-9_120-levels_1D/object9F0Level44F1Level40.png,./img/object-9_120-levels_1D/object9F0Level94F1Level40.png,0,0,1798.7999999998137,q,practice,triplets-canvas-keyboard-response,4,11339,0.0-1.0-0.3,1,True,q,54,44,94,10,-40,-50,10,40,50,54_44_94,44,94,10,-40,-50,10,40,50,54_44_94,10_-40_-50,10_40_50,1,1,30,query_middle,44.0,ref_lowdim,ref_lowdim,ref_left,1.0,1
perfect_responder,./img/object-9_120-levels_1D/object9F0Level84F1Level40.png,./img/object-9_120-levels_1D/object9F0Level104F1Level40.png,./img/object-9_120-levels_1D/object9F0Level44F1Level40.png,0,0,1018.4000000003725,q,practice,triplets-canvas-keyboard-response,5,13847,0.0-1.0-0.4,1,True,q,84,104,44,-20,40,60,20,40,60,84_104_44,44,104,40,-20,-60,40,20,60,84_44_104,40_-20_-60,20_40_60,1,1,20,query_middle,104.0,ref_highdim,ref_highdim,ref_left,1.0,1
perfect_responder,./img/object-9_120-levels_1D/object9F0Level64F1Level40.png,./img/object-9_120-levels_1D/object9F0Level24F1Level40.png,./img/object-9_120-levels_1D/object9F0Level74F1Level40.png,0,0,1225.7000000001863,p,practice,triplets-canvas-keyboard-response,6,16353,0.0-1.0-0.5,1,True,p,64,24,74,40,-10,-50,40,10,50,64_24_74,24,74,40,-10,-50,40,10,50,64_24_74,40_-10_-50,10_40_50,1,1,30,query_middle,74.0,ref_highdim,ref_highdim,ref_right,1.0,1
perfect_responder,./img/object-9_120-levels_1D/object9F0Level104F1Level40.png,./img/object-9_120-levels_1D/object9F0Level84F1Level40.png,./img/object-9_120-levels_1D/object9F0Level94F1Level40.png,0,0,1824.8999999994412,p,practice,triplets-canvas-keyboard-response,7,18864,0.0-1.0-0.6,1,True,p,104,84,94,20,10,-10,20,10,10,104_84_94,84,94,20,10,-10,20,10,10,104_84_94,20_10_-10,10_20_10,1,1,10,query_right,94.0,ref_highdim,ref_highdim,ref_right,1.0,1
perfect_responder,./img/object-9_120-levels_1D/object9F0Level34F1Level40.png,./img/object-9_120-levels_1D/object9F0Level54F1Level40.png,./img/object-9_120-levels_1D/object9F0Level104F1Level40.png,0,0,737.7999999998137,q,practice,triplets-canvas-keyboard-response,8,21372,0.0-1.0-0.7,1,True,q,34,54,104,-20,-70,-50,20,70,50,34_54_104,54,104,-20,-70,-50,20,70,50,34_54_104,-20_-70_-50,20_70_50,1,1,50,query_left,54.0,ref_lowdim,ref_lowdim,ref_left,1.0,1
perfect_responder,./img/object-9_120-levels_1D/object9F0Level94F1Level40.png,./img/object-9_120-levels_1D/object9F0Level84F1Level40.png,./img/object-9_120-levels_1D/object9F0Level104F1Level40.png,0,0,1711.5999999996275,q,practice,triplets-canvas-keyboard-response,9,23880,0.0-1.0-0.8,1,,,94,84,104,10,-10,-20,10,10,20,94_84_104,84,104,10,-10,-20,10,10,20,94_84_104,10_-10_-20,10_10_20,1,1,0,query_middle,84.0,ref_lowdim,nan,nan,,1
perfect_responder,./img/object-9_120-levels_1D/object9F0Level44F1Level40.png,./img/object-9_120-levels_1D/object9F0Level24F1Level40.png,./img/object-9_120-levels_1D/object9F0Level104F1Level40.png,0,0,928.2000000001863,q,practice,triplets-canvas-keyboard-response,10,26386,0.0-1.0-0.9,1,True,q,44,24,104,20,-60,-80,20,60,80,44_24_104,24,104,20,-60,-80,20,60,80,44_24_104,20_-60_-80,20_60_80,1,1,40,query_middle,24.0,ref_lowdim,ref_lowdim,ref_left,1.0,1
perfect_responder,./img/object-9_120-levels_1D/object9F0Level59F1Level40.png,./img/object-9_120-levels_1D/object9F0Level99F1Level40.png,./img/object-9_120-levels_1D/object9F0Level19F1Level40.png,0,0,2039.0,p,triplet_task,triplets-canvas-keyboard-response,1,4020,0.0-1.0-0.0,1,,,59,99,19,-40,40,80,40,40,80,59_99_19,19,99,40,-40,-80,40,40,80,59_19_99,40_-40_-80,40_40_80,1,1,0,query_middle,19.0,ref_lowdim,nan,nan,,1
perfect_responder,./img/object-9_120-levels_1D/object9F0Level39F1Level40.png,./img/object-9_120-levels_1D/object9F0Level49F1Level40.png,./img/object-9_120-levels_1D/object9F0Level79F1Level40.png,0,0,1086.5,q,triplet_task,triplets-canvas-keyboard-response,2,6526,0.0-1.0-0.1,1,True,q,39,49,79,-10,-40,-30,10,40,30,39_49_79,49,79,-10,-40,-30,10,40,30,39_49_79,-10_-40_-30,10_40_30,1,1,30,query_left,49.0,ref_lowdim,ref_lowdim,ref_left,1.0,1
perfect_responder,./img/object-9_120-levels_1D/object9F0Level89F1Level40.png,./img/object-9_120-levels_1D/object9F0Level29F1Level40.png,./img/object-9_120-levels_1D/object9F0Level119F1Level40.png,0,0,1355.7000000001863,p,triplet_task,triplets-canvas-keyboard-response,3,9035,0.0-1.0-0.2,1,True,p,89,29,119,60,-30,-90,60,30,90,89_29_119,29,119,60,-30,-90,60,30,90,89_29_119,60_-30_-90,30_60_90,1,1,30,query_middle,119.0,ref_highdim,ref_highdim,ref_right,1.0,1
perfect_responder,./img/object-9_120-levels_1D/object9F0Level29F1Level40.png,./img/object-9_120-levels_1D/object9F0Level79F1Level40.png,./img/object-9_120-levels_1D/object9F0Level59F1Level40.png,0,0,1563.5,p,triplet_task,triplets-canvas-keyboard-response,4,11540,0.0-1.0-0.3,1,True,p,29,79,59,-50,-30,20,50,30,20,29_79_59,59,79,-30,-50,-20,30,50,20,29_59_79,-30_-50_-20,30_50_20,1,1,20,query_left,59.0,ref_lowdim,ref_lowdim,ref_right,1.0,1
perfect_responder,./img/object-9_120-levels_1D/object9F0Level99F1Level40.png,./img/object-9_120-levels_1D/object9F0Level69F1Level40.png,./img/object-9_120-levels_1D/object9F0Level49F1Level40.png,0,0,856.9000000003725,q,triplet_task,triplets-canvas-keyboard-response,5,14051,0.0-1.0-0.4,1,True,q,99,69,49,30,50,20,30,50,20,99_69_49,49,69,50,30,-20,50,30,20,99_49_69,50_30_-20,30_50_20,1,1,20,query_right,69.0,ref_highdim,ref_highdim,ref_left,1.0,1
perfect_responder,./img/object-9_120-levels_1D/object9F0Level69F1Level40.png,./img/object-9_120-levels_1D/object9F0Level39F1Level40.png,./img/object-9_120-levels_1D/object9F0Level59F1Level40.png,0,0,776.2000000001863,p,triplet_task,triplets-canvas-keyboard-response,6,16553,0.0-1.0-0.5,1,True,p,69,39,59,30,10,-20,30,10,20,69_39_59,39,59,30,10,-20,30,10,20,69_39_59,30_10_-20,10_30_20,1,1,20,query_right,59.0,ref_highdim,ref_highdim,ref_right,1.0,1
perfect_responder,./img/object-9_120-levels_1D/object9F0Level79F1Level40.png,./img/object-9_120-levels_1D/object9F0Level109F1Level40.png,./img/object-9_120-levels_1D/object9F0Level29F1Level40.png,0,0,1349.0999999996275,q,triplet_task,triplets-canvas-keyboard-response,7,19061,0.0-1.0-0.6,1,True,q,79,109,29,-30,50,80,30,50,80,79_109_29,29,109,50,-30,-80,50,30,80,79_29_109,50_-30_-80,30_50_80,1,1,20,query_middle,109.0,ref_highdim,ref_highdim,ref_left,1.0,1
perfect_responder,./img/object-9_120-levels_1D/object9F0Level19F1Level40.png,./img/object-9_120-levels_1D/object9F0Level69F1Level40.png,./img/object-9_120-levels_1D/object9F0Level119F1Level40.png,0,0,1526.0,q,triplet_task,triplets-canvas-keyboard-response,8,21568,0.0-1.0-0.7,1,True,q,19,69,119,-50,-100,-50,50,100,50,19_69_119,69,119,-50,-100,-50,50,100,50,19_69_119,-50_-100_-50,50_100_50,1,1,50,query_left,69.0,ref_lowdim,ref_lowdim,ref_left,1.0,1
perfect_responder,./img/object-9_120-levels_1D/object9F0Level109F1Level40.png,./img/object-9_120-levels_1D/object9F0Level99F1Level40.png,./img/object-9_120-levels_1D/object9F0Level29F1Level40.png,0,0,894.0,q,triplet_task,triplets-canvas-keyboard-response,9,24076,0.0-1.0-0.8,1,True,q,109,99,29,10,80,70,10,80,70,109_99_29,29,99,80,10,-70,80,10,70,109_29_99,80_10_-70,10_80_70,1,1,70,query_right,99.0,ref_highdim,ref_highdim,ref_left,1.0,1
perfect_responder,./img/object-9_120-levels_1D/object9F0Level39F1Level40.png,./img/object-9_120-levels_1D/object9F0Level49F1Level40.png,./img/object-9_120-levels_1D/object9F0Level89F1Level40.png,0,0,981.4000000003725,q,triplet_task,triplets-canvas-keyboard-response,10,26584,0.0-1.0-0.9,1,True,q,39,49,89,-10,-50,-40,10,50,40,39_49_89,49,89,-10,-50,-40,10,50,40,39_49_89,-10_-50_-40,10_50_40,1,1,40,query_left,49.0,ref_lowdim,ref_lowdim,ref_left,1.0,1
perfect_responder,./img/object-9_120-levels_1D/object9F0Level69F1Level40.png,./img/object-9_120-levels_1D/object9F0Level29F1Level40.png,./img/object-9_120-levels_1D/object9F0Level119F1Level40.png,0,0,1263.7000000001863,q,triplet_task,triplets-canvas-keyboard-response,11,29092,0.0-1.0-0.10,1,True,q,69,29,119,40,-50,-90,40,50,90,69_29_119,29,119,40,-50,-90,40,50,90,69_29_119,40_-50_-90,40_50_90,1,1,10,query_middle,29.0,ref_lowdim,ref_lowdim,ref_left,1.0,1
perfect_responder,./img/object-9_120-levels_1D/object9F0Level39F1Level40.png,./img/object-9_120-levels_1D/object9F0Level69F1Level40.png,./img/object-9_120-levels_1D/object9F0Level109F1Level40.png,0,0,1140.800000000745,q,triplet_task,triplets-canvas-keyboard-response,12,31600,0.0-1.0-0.11,1,True,q,39,69,109,-30,-70,-40,30,70,40,39_69_109,69,109,-30,-70,-40,30,70,40,39_69_109,-30_-70_-40,30_70_40,1,1,40,query_left,69.0,ref_lowdim,ref_lowdim,ref_left,1.0,1
perfect_responder,./img/object-9_120-levels_1D/object9F0Level49F1Level40.png,./img/object-9_120-levels_1D/object9F0Level69F1Level40.png,./img/object-9_120-levels_1D/object9F0Level79F1Level40.png,0,0,1497.2000000001863,q,triplet_task,triplets-canvas-keyboard-response,13,34107,0.0-1.0-0.12,1,True,q,49,69,79,-20,-30,-10,20,30,10,49_69_79,69,79,-20,-30,-10,20,30,10,49_69_79,-20_-30_-10,20_30_10,1,1,10,query_left,69.0,ref_lowdim,ref_lowdim,ref_left,1.0,1
perfect_responder,./img/object-9_120-levels_1D/object9F0Level39F1Level40.png,./img/object-9_120-levels_1D/object9F0Level59F1Level40.png,./img/object-9_120-levels_1D/object9F0Level29F1Level40.png,0,0,1119.8999999994412,p,triplet_task,triplets-canvas-keyboard-response,14,36615,0.0-1.0-0.13,1,True,p,39,59,29,-20,10,30,20,10,30,39_59_29,29,59,10,-20,-30,10,20,30,39_29_59,10_-20_-30,10_20_30,1,1,10,query_middle,29.0,ref_lowdim,ref_lowdim,ref_right,1.0,1
perfect_responder,./img/object-9_120-levels_1D/object9F0Level59F1Level40.png,./img/object-9_120-levels_1D/object9F0Level79F1Level40.png,./img/object-9_120-levels_1D/object9F0Level109F1Level40.png,0,0,1565.0,q,triplet_task,triplets-canvas-keyboard-response,15,39124,0.0-1.0-0.14,1,True,q,59,79,109,-20,-50,-30,20,50,30,59_79_109,79,109,-20,-50,-30,20,50,30,59_79_109,-20_-50_-30,20_50_30,1,1,30,query_left,79.0,ref_lowdim,ref_lowdim,ref_left,1.0,1
perfect_responder,./img/object-9_120-levels_1D/object9F0Level109F1Level40.png,./img/object-9_120-levels_1D/object9F0Level19F1Level40.png,./img/object-9_120-levels_1D/object9F0Level89F1Level40.png,0,0,903.7000000001863,p,triplet_task,triplets-canvas-keyboard-response,16,41631,0.0-1.0-0.15,1,True,p,109,19,89,90,20,-70,90,20,70,109_19_89,19,89,90,20,-70,90,20,70,109_19_89,90_20_-70,20_90_70,1,1,70,query_right,89.0,ref_highdim,ref_highdim,ref_right,1.0,1
perfect_responder,./img/object-9_120-levels_1D/object9F0Level119F1Level40.png,./img/object-9_120-levels_1D/object9F0Level39F1Level40.png,./img/object-9_120-levels_1D/object9F0Level99F1Level40.png,0,0,901.0,p,triplet_task,triplets-canvas-keyboard-response,17,44139,0.0-1.0-0.16,1,True,p,119,39,99,80,20,-60,80,20,60,119_39_99,39,99,80,20,-60,80,20,60,119_39_99,80_20_-60,20_80_60,1,1,60,query_right,99.0,ref_highdim,ref_highdim,ref_right,1.0,1
perfect_responder,./img/object-9_120-levels_1D/object9F0Level89F1Level40.png,./img/object-9_120-levels_1D/object9F0Level109F1Level40.png,./img/object-9_120-levels_1D/object9F0Level119F1Level40.png,0,0,1288.5,q,triplet_task,triplets-canvas-keyboard-response,18,46647,0.0-1.0-0.17,1,True,q,89,109,119,-20,-30,-10,20,30,10,89_109_119,109,119,-20,-30,-10,20,30,10,89_109_119,-20_-30_-10,20_30_10,1,2,10,query_left,109.0,ref_lowdim,ref_lowdim,ref_left,1.0,1
perfect_responder,./img/object-9_120-levels_1D/object9F0Level29F1Level40.png,./img/object-9_120-levels_1D/object9F0Level109F1Level40.png,./img/object-9_120-levels_1D/object9F0Level69F1Level40.png,0,0,1330.9000000003725,p,triplet_task,triplets-canvas-keyboard-response,19,49154,0.0-1.0-0.18,1,True,p,29,109,69,-80,-40,40,80,40,40,29_109_69,69,109,-40,-80,-40,40,80,40,29_69_109,-40_-80_-40,40_80_40,1,1,40,query_left,69.0,ref_lowdim,ref_lowdim,ref_right,1.0,1
perfect_responder,./img/object-9_120-levels_1D/object9F0Level59F1Level40.png,./img/object-9_120-levels_1D/object9F0Level19F1Level40.png,./img/object-9_120-levels_1D/object9F0Level39F1Level40.png,0,0,1658.2000000001863,p,triplet_task,triplets-canvas-keyboard-response,20,51662,0.0-1.0-0.19,1,True,p,59,19,39,40,20,-20,40,20,20,59_19_39,19,39,40,20,-20,40,20,20,59_19_39,40_20_-20,20_40_20,1,1,20,query_right,39.0,ref_highdim,ref_highdim,ref_right,1.0,1
perfect_responder,./img/object-9_120-levels_1D/object9F0Level89F1Level40.png,./img/object-9_120-levels_1D/object9F0Level79F1Level40.png,./img/object-9_120-levels_1D/object9F0Level59F1Level40.png,0,0,1205.7000000001863,q,triplet_task,triplets-canvas-keyboard-response,21,54170,0.0-1.0-0.20,1,True,q,89,79,59,10,30,20,10,30,20,89_79_59,59,79,30,10,-20,30,10,20,89_59_79,30_10_-20,10_30_20,1,2,20,query_right,79.0,ref_highdim,ref_highdim,ref_left,1.0,1
perfect_responder,./img/object-9_120-levels_1D/object9F0Level59F1Level40.png,./img/object-9_120-levels_1D/object9F0Level49F1Level40.png,./img/object-9_120-levels_1D/object9F0Level69F1Level40.png,0,0,1878.0,p,triplet_task,triplets-canvas-keyboard-response,22,56678,0.0-1.0-0.21,1,,,59,49,69,10,-10,-20,10,10,20,59_49_69,49,69,10,-10,-20,10,10,20,59_49_69,10_-10_-20,10_10_20,1,1,0,query_middle,69.0,ref_highdim,nan,nan,,1
perfect_responder,./img/object-9_120-levels_1D/object9F0Level29F1Level40.png,./img/object-9_120-levels_1D/object9F0Level109F1Level40.png,./img/object-9_120-levels_1D/object9F0Level119F1Level40.png,0,0,1275.5,q,triplet_task,triplets-canvas-keyboard-response,23,59186,0.0-1.0-0.22,1,True,q,29,109,119,-80,-90,-10,80,90,10,29_109_119,109,119,-80,-90,-10,80,90,10,29_109_119,-80_-90_-10,80_90_10,1,1,10,query_left,109.0,ref_lowdim,ref_lowdim,ref_left,1.0,1
perfect_responder,./img/object-9_120-levels_1D/object9F0Level49F1Level40.png,./img/object-9_120-levels_1D/object9F0Level119F1Level40.png,./img/object-9_120-levels_1D/object9F0Level39F1Level40.png,0,0,867.2999999998137,p,triplet_task,triplets-canvas-keyboard-response,24,61693,0.0-1.0-0.23,1,True,p,49,119,39,-70,10,80,70,10,80,49_119_39,39,119,10,-70,-80,10,70,80,49_39_119,10_-70_-80,10_70_80,1,1,60,query_middle,39.0,ref_lowdim,ref_lowdim,ref_right,1.0,1
perfect_responder,./img/object-9_120-levels_1D/object9F0Level59F1Level40.png,./img/object-9_120-levels_1D/object9F0Level99F1Level40.png,./img/object-9_120-levels_1D/object9F0Level29F1Level40.png,0,0,1734.7999999998137,p,triplet_task,triplets-canvas-keyboard-response,25,64201,0.0-1.0-0.24,1,True,p,59,99,29,-40,30,70,40,30,70,59_99_29,29,99,30,-40,-70,30,40,70,59_29_99,30_-40_-70,30_40_70,1,1,10,query_middle,29.0,ref_lowdim,ref_lowdim,ref_right,1.0,1
perfect_responder,./img/object-9_120-levels_1D/object9F0Level19F1Level40.png,./img/object-9_120-levels_1D/object9F0Level49F1Level40.png,./img/object-9_120-levels_1D/object9F0Level89F1Level40.png,0,0,1041.800000000745,q,triplet_task,triplets-canvas-keyboard-response,26,66709,0.0-1.0-0.25,1,True,q,19,49,89,-30,-70,-40,30,70,40,19_49_89,49,89,-30,-70,-40,30,70,40,19_49_89,-30_-70_-40,30_70_40,1,2,40,query_left,49.0,ref_lowdim,ref_lowdim,ref_left,1.0,1
perfect_responder,./img/object-9_120-levels_1D/object9F0Level39F1Level40.png,./img/object-9_120-levels_1D/object9F0Level49F1Level40.png,./img/object-9_120-levels_1D/object9F0Level99F1Level40.png,0,0,754.4000000003725,q,triplet_task,triplets-canvas-keyboard-response,27,69216,0.0-1.0-0.26,1,True,q,39,49,99,-10,-60,-50,10,60,50,39_49_99,49,99,-10,-60,-50,10,60,50,39_49_99,-10_-60_-50,10_60_50,1,1,50,query_left,49.0,ref_lowdim,ref_lowdim,ref_left,1.0,1
perfect_responder,./img/object-9_120-levels_1D/object9F0Level99F1Level40.png,./img/object-9_120-levels_1D/object9F0Level69F1Level40.png,./img/object-9_120-levels_1D/object9F0Level39F1Level40.png,0,0,1471.7000000001863,q,triplet_task,triplets-canvas-keyboard-response,28,71724,0.0-1.0-0.27,1,True,q,99,69,39,30,60,30,30,60,30,99_69_39,39,69,60,30,-30,60,30,30,99_39_69,60_30_-30,30_60_30,1,1,30,query_right,69.0,ref_highdim,ref_highdim,ref_left,1.0,1
perfect_responder,./img/object-9_120-levels_1D/object9F0Level39F1Level40.png,./img/object-9_120-levels_1D/object9F0Level29F1Level40.png,./img/object-9_120-levels_1D/object9F0Level49F1Level40.png,0,0,1424.0999999996275,p,triplet_task,triplets-canvas-keyboard-response,29,74232,0.0-1.0-0.28,1,,,39,29,49,10,-10,-20,10,10,20,39_29_49,29,49,10,-10,-20,10,10,20,39_29_49,10_-10_-20,10_10_20,1,2,0,query_middle,49.0,ref_highdim,nan,nan,,1
perfect_responder,./img/object-9_120-levels_1D/object9F0Level79F1Level40.png,./img/object-9_120-levels_1D/object9F0Level119F1Level40.png,./img/object-9_120-levels_1D/object9F0Level69F1Level40.png,0,0,881.2000000001863,p,triplet_task,triplets-canvas-keyboard-response,30,76740,0.0-1.0-0.29,1,True,p,79,119,69,-40,10,50,40,10,50,79_119_69,69,119,10,-40,-50,10,40,50,79_69_119,10_-40_-50,10_40_50,1,1,30,query_middle,69.0,ref_lowdim,ref_lowdim,ref_right,1.0,1
perfect_responder,./img/object-9_120-levels_1D/object9F0Level89F1Level40.png,./img/object-9_120-levels_1D/object9F0Level99F1Level40.png,./img/object-9_120-levels_1D/object9F0Level79F1Level40.png,0,0,968.7999999998137,p,triplet_task,triplets-canvas-keyboard-response,31,79247,0.0-1.0-0.30,1,,,89,99,79,-10,10,20,10,10,20,89_99_79,79,99,10,-10,-20,10,10,20,89_79_99,10_-10_-20,10_10_20,1,3,0,query_middle,79.0,ref_lowdim,nan,nan,,1
perfect_responder,./img/object-9_120-levels_1D/object9F0Level49F1Level40.png,./img/object-9_120-levels_1D/object9F0Level69F1Level40.png,./img/object-9_120-levels_1D/object9F0Level29F1Level40.png,0,0,905.5999999996275,p,triplet_task,triplets-canvas-keyboard-response,32,81757,0.0-1.0-0.31,1,,,49,69,29,-20,20,40,20,20,40,49_69_29,29,69,20,-20,-40,20,20,40,49_29_69,20_-20_-40,20_20_40,1,1,0,query_middle,29.0,ref_lowdim,nan,nan,,1
perfect_responder,./img/object-9_120-levels_1D/object9F0Level79F1Level40.png,./img/object-9_120-levels_1D/object9F0Level29F1Level40.png,./img/object-9_120-levels_1D/object9F0Level59F1Level40.png,0,0,1321.5,p,triplet_task,triplets-canvas-keyboard-response,33,84263,0.0-1.0-0.32,1,True,p,79,29,59,50,20,-30,50,20,30,79_29_59,29,59,50,20,-30,50,20,30,79_29_59,50_20_-30,20_50_30,1,1,30,query_right,59.0,ref_highdim,ref_highdim,ref_right,1.0,1
perfect_responder,./img/object-9_120-levels_1D/object9F0Level69F1Level40.png,./img/object-9_120-levels_1D/object9F0Level49F1Level40.png,./img/object-9_120-levels_1D/object9F0Level109F1Level40.png,0,0,1815.7000000001863,q,triplet_task,triplets-canvas-keyboard-response,34,86771,0.0-1.0-0.33,1,True,q,69,49,109,20,-40,-60,20,40,60,69_49_109,49,109,20,-40,-60,20,40,60,69_49_109,20_-40_-60,20_40_60,1,1,20,query_middle,49.0,ref_lowdim,ref_lowdim,ref_left,1.0,1
perfect_responder,./img/object-9_120-levels_1D/object9F0Level99F1Level40.png,./img/object-9_120-levels_1D/object9F0Level59F1Level40.png,./img/object-9_120-levels_1D/object9F0Level39F1Level40.png,0,0,1408.0,q,triplet_task,triplets-canvas-keyboard-response,35,89278,0.0-1.0-0.34,1,True,q,99,59,39,40,60,20,40,60,20,99_59_39,39,59,60,40,-20,60,40,20,99_39_59,60_40_-20,40_60_20,1,1,20,query_right,59.0,ref_highdim,ref_highdim,ref_left,1.0,1
perfect_responder,./img/object-9_120-levels_1D/object9F0Level29F1Level40.png,./img/object-9_120-levels_1D/object9F0Level109F1Level40.png,./img/object-9_120-levels_1D/object9F0Level89F1Level40.png,0,0,1569.8999999994412,p,triplet_task,triplets-canvas-keyboard-response,36,91786,0.0-1.0-0.35,1,True,p,29,109,89,-80,-60,20,80,60,20,29_109_89,89,109,-60,-80,-20,60,80,20,29_89_109,-60_-80_-20,60_80_20,1,1,20,query_left,89.0,ref_lowdim,ref_lowdim,ref_right,1.0,1
perfect_responder,./img/object-9_120-levels_1D/object9F0Level109F1Level40.png,./img/object-9_120-levels_1D/object9F0Level49F1Level40.png,./img/object-9_120-levels_1D/object9F0Level69F1Level40.png,0,0,1340.3999999994412,p,triplet_task,triplets-canvas-keyboard-response,37,94294,0.0-1.0-0.36,1,True,p,109,49,69,60,40,-20,60,40,20,109_49_69,49,69,60,40,-20,60,40,20,109_49_69,60_40_-20,40_60_20,1,2,20,query_right,69.0,ref_highdim,ref_highdim,ref_right,1.0,1
perfect_responder,./img/object-9_120-levels_1D/object9F0Level49F1Level40.png,./img/object-9_120-levels_1D/object9F0Level109F1Level40.png,./img/object-9_120-levels_1D/object9F0Level119F1Level40.png,0,0,1414.7000000001863,q,triplet_task,triplets-canvas-keyboard-response,38,96802,0.0-1.0-0.37,1,True,q,49,109,119,-60,-70,-10,60,70,10,49_109_119,109,119,-60,-70,-10,60,70,10,49_109_119,-60_-70_-10,60_70_10,1,1,10,query_left,109.0,ref_lowdim,ref_lowdim,ref_left,1.0,1
perfect_responder,./img/object-9_120-levels_1D/object9F0Level19F1Level40.png,./img/object-9_120-levels_1D/object9F0Level69F1Level40.png,./img/object-9_120-levels_1D/object9F0Level79F1Level40.png,0,0,1516.7000000001863,q,triplet_task,triplets-canvas-keyboard-response,39,99309,0.0-1.0-0.38,1,True,q,19,69,79,-50,-60,-10,50,60,10,19_69_79,69,79,-50,-60,-10,50,60,10,19_69_79,-50_-60_-10,50_60_10,1,1,10,query_left,69.0,ref_lowdim,ref_lowdim,ref_left,1.0,1
perfect_responder,./img/object-9_120-levels_1D/object9F0Level109F1Level40.png,./img/object-9_120-levels_1D/object9F0Level119F1Level40.png,./img/object-9_120-levels_1D/object9F0Level29F1Level40.png,0,0,1184.2000000001863,q,triplet_task,triplets-canvas-keyboard-response,40,101817,0.0-1.0-0.39,1,True,q,109,119,29,-10,80,90,10,80,90,109_119_29,29,119,80,-10,-90,80,10,90,109_29_119,80_-10_-90,10_80_90,1,1,70,query_middle,119.0,ref_highdim,ref_highdim,ref_left,1.0,1
perfect_responder,./img/object-9_120-levels_1D/object9F0Level79F1Level40.png,./img/object-9_120-levels_1D/object9F0Level19F1Level40.png,./img/object-9_120-levels_1D/object9F0Level89F1Level40.png,0,0,821.7999999998137,p,triplet_task,triplets-canvas-keyboard-response,41,104325,0.0-1.0-0.40,1,True,p,79,19,89,60,-10,-70,60,10,70,79_19_89,19,89,60,-10,-70,60,10,70,79_19_89,60_-10_-70,10_60_70,1,1,50,query_middle,89.0,ref_highdim,ref_highdim,ref_right,1.0,1
perfect_responder,./img/object-9_120-levels_1D/object9F0Level69F1Level40.png,./img/object-9_120-levels_1D/object9F0Level79F1Level40.png,./img/object-9_120-levels_1D/object9F0Level119F1Level40.png,0,0,878.6000000005588,q,triplet_task,triplets-canvas-keyboard-response,42,106833,0.0-1.0-0.41,1,True,q,69,79,119,-10,-50,-40,10,50,40,69_79_119,79,119,-10,-50,-40,10,50,40,69_79_119,-10_-50_-40,10_50_40,1,2,40,query_left,79.0,ref_lowdim,ref_lowdim,ref_left,1.0,1
perfect_responder,./img/object-9_120-levels_1D/object9F0Level39F1Level40.png,./img/object-9_120-levels_1D/object9F0Level79F1Level40.png,./img/object-9_120-levels_1D/object9F0Level59F1Level40.png,0,0,861.3999999994412,p,triplet_task,triplets-canvas-keyboard-response,43,109340,0.0-1.0-0.42,1,True,p,39,79,59,-40,-20,20,40,20,20,39_79_59,59,79,-20,-40,-20,20,40,20,39_59_79,-20_-40_-20,20_40_20,1,1,20,query_left,59.0,ref_lowdim,ref_lowdim,ref_right,1.0,1
perfect_responder,./img/object-9_120-levels_1D/object9F0Level99F1Level40.png,./img/object-9_120-levels_1D/object9F0Level59F1Level40.png,./img/object-9_120-levels_1D/object9F0Level89F1Level40.png,0,0,768.2000000001863,p,triplet_task,triplets-canvas-keyboard-response,44,111848,0.0-1.0-0.43,1,True,p,99,59,89,40,10,-30,40,10,30,99_59_89,59,89,40,10,-30,40,10,30,99_59_89,40_10_-30,10_40_30,1,1,30,query_right,89.0,ref_highdim,ref_highdim,ref_right,1.0,1
perfect_responder,./img/object-9_120-levels_1D/object9F0Level29F1Level40.png,./img/object-9_120-levels_1D/object9F0Level99F1Level40.png,./img/object-9_120-levels_1D/object9F0Level39F1Level40.png,0,0,630.7999999998137,p,triplet_task,triplets-canvas-keyboard-response,45,114356,0.0-1.0-0.44,1,True,p,29,99,39,-70,-10,60,70,10,60,29_99_39,39,99,-10,-70,-60,10,70,60,29_39_99,-10_-70_-60,10_70_60,1,1,60,query_left,39.0,ref_lowdim,ref_lowdim,ref_right,1.0,1
perfect_responder,./img/object-9_120-levels_1D/object9F0Level69F1Level40.png,./img/object-9_120-levels_1D/object9F0Level79F1Level40.png,./img/object-9_120-levels_1D/object9F0Level29F1Level40.png,0,0,1332.5,q,triplet_task,triplets-canvas-keyboard-response,46,116863,0.0-1.0-0.45,1,True,q,69,79,29,-10,40,50,10,40,50,69_79_29,29,79,40,-10,-50,40,10,50,69_29_79,40_-10_-50,10_40_50,1,1,30,query_middle,79.0,ref_highdim,ref_highdim,ref_left,1.0,1
perfect_responder,./img/object-9_120-levels_1D/object9F0Level49F1Level40.png,./img/object-9_120-levels_1D/object9F0Level119F1Level40.png,./img/object-9_120-levels_1D/object9F0Level69F1Level40.png,0,0,1405.7000000001863,p,triplet_task,triplets-canvas-keyboard-response,47,119371,0.0-1.0-0.46,1,True,p,49,119,69,-70,-20,50,70,20,50,49_119_69,69,119,-20,-70,-50,20,70,50,49_69_119,-20_-70_-50,20_70_50,1,1,50,query_left,69.0,ref_lowdim,ref_lowdim,ref_right,1.0,1
perfect_responder,./img/object-9_120-levels_1D/object9F0Level39F1Level40.png,./img/object-9_120-levels_1D/object9F0Level99F1Level40.png,./img/object-9_120-levels_1D/object9F0Level29F1Level40.png,0,0,697.7999999998137,p,triplet_task,triplets-canvas-keyboard-response,48,121879,0.0-1.0-0.47,1,True,p,39,99,29,-60,10,70,60,10,70,39_99_29,29,99,10,-60,-70,10,60,70,39_29_99,10_-60_-70,10_60_70,1,1,50,query_middle,29.0,ref_lowdim,ref_lowdim,ref_right,1.0,1
perfect_responder,./img/object-9_120-levels_1D/object9F0Level89F1Level40.png,./img/object-9_120-levels_1D/object9F0Level109F1Level40.png,./img/object-9_120-levels_1D/object9F0Level39F1Level40.png,0,0,1052.5,q,triplet_task,triplets-canvas-keyboard-response,49,124386,0.0-1.0-0.48,1,True,q,89,109,39,-20,50,70,20,50,70,89_109_39,39,109,50,-20,-70,50,20,70,89_39_109,50_-20_-70,20_50_70,1,1,30,query_middle,109.0,ref_highdim,ref_highdim,ref_left,1.0,1
perfect_responder,./img/object-9_120-levels_1D/object9F0Level39F1Level40.png,./img/object-9_120-levels_1D/object9F0Level59F1Level40.png,./img/object-9_120-levels_1D/object9F0Level49F1Level40.png,0,0,677.9000000003725,p,triplet_task,triplets-canvas-keyboard-response,50,126894,0.0-1.0-0.49,1,True,p,39,59,49,-20,-10,10,20,10,10,39_59_49,49,59,-10,-20,-10,10,20,10,39_49_59,-10_-20_-10,10_20_10,1,1,10,query_left,49.0,ref_lowdim,ref_lowdim,ref_right,1.0,1
perfect_responder,./img/object-9_120-levels_1D/object9F0Level69F1Level40.png,./img/object-9_120-levels_1D/object9F0Level59F1Level40.png,./img/object-9_120-levels_1D/object9F0Level119F1Level40.png,0,0,1064.8999999994412,q,triplet_task,triplets-canvas-keyboard-response,51,129402,0.0-1.0-0.50,1,True,q,69,59,119,10,-50,-60,10,50,60,69_59_119,59,119,10,-50,-60,10,50,60,69_59_119,10_-50_-60,10_50_60,1,1,40,query_middle,59.0,ref_lowdim,ref_lowdim,ref_left,1.0,1
perfect_responder,./img/object-9_120-levels_1D/object9F0Level39F1Level40.png,./img/object-9_120-levels_1D/object9F0Level79F1Level40.png,./img/object-9_120-levels_1D/object9F0Level89F1Level40.png,0,0,1152.0,q,triplet_task,triplets-canvas-keyboard-response,52,131910,0.0-1.0-0.51,1,True,q,39,79,89,-40,-50,-10,40,50,10,39_79_89,79,89,-40,-50,-10,40,50,10,39_79_89,-40_-50_-10,40_50_10,1,1,10,query_left,79.0,ref_lowdim,ref_lowdim,ref_left,1.0,1
perfect_responder,./img/object-9_120-levels_1D/object9F0Level49F1Level40.png,./img/object-9_120-levels_1D/object9F0Level109F1Level40.png,./img/object-9_120-levels_1D/object9F0Level79F1Level40.png,0,0,684.0999999996275,p,triplet_task,triplets-canvas-keyboard-response,53,134418,0.0-1.0-0.52,1,True,p,49,109,79,-60,-30,30,60,30,30,49_109_79,79,109,-30,-60,-30,30,60,30,49_79_109,-30_-60_-30,30_60_30,1,1,30,query_left,79.0,ref_lowdim,ref_lowdim,ref_right,1.0,1
perfect_responder,./img/object-9_120-levels_1D/object9F0Level109F1Level40.png,./img/object-9_120-levels_1D/object9F0Level99F1Level40.png,./img/object-9_120-levels_1D/object9F0Level69F1Level40.png,0,0,1176.6000000005588,q,triplet_task,triplets-canvas-keyboard-response,54,136926,0.0-1.0-0.53,1,True,q,109,99,69,10,40,30,10,40,30,109_99_69,69,99,40,10,-30,40,10,30,109_69_99,40_10_-30,10_40_30,1,2,30,query_right,99.0,ref_highdim,ref_highdim,ref_left,1.0,1
perfect_responder,./img/object-9_120-levels_1D/object9F0Level79F1Level40.png,./img/object-9_120-levels_1D/object9F0Level39F1Level40.png,./img/object-9_120-levels_1D/object9F0Level19F1Level40.png,0,0,1368.8999999994412,q,triplet_task,triplets-canvas-keyboard-response,55,139433,0.0-1.0-0.54,1,True,q,79,39,19,40,60,20,40,60,20,79_39_19,19,39,60,40,-20,60,40,20,79_19_39,60_40_-20,40_60_20,1,3,20,query_right,39.0,ref_highdim,ref_highdim,ref_left,1.0,1
perfect_responder,./img/object-9_120-levels_1D/object9F0Level19F1Level40.png,./img/object-9_120-levels_1D/object9F0Level49F1Level40.png,./img/object-9_120-levels_1D/object9F0Level59F1Level40.png,0,0,2086.9000000003725,q,triplet_task,triplets-canvas-keyboard-response,56,142022,0.0-1.0-0.55,1,True,q,19,49,59,-30,-40,-10,30,40,10,19_49_59,49,59,-30,-40,-10,30,40,10,19_49_59,-30_-40_-10,30_40_10,1,1,10,query_left,49.0,ref_lowdim,ref_lowdim,ref_left,1.0,1
perfect_responder,./img/object-9_120-levels_1D/object9F0Level69F1Level40.png,./img/object-9_120-levels_1D/object9F0Level39F1Level40.png,./img/object-9_120-levels_1D/object9F0Level49F1Level40.png,0,0,1642.2000000001863,p,triplet_task,triplets-canvas-keyboard-response,57,144530,0.0-1.0-0.56,1,True,p,69,39,49,30,20,-10,30,20,10,69_39_49,39,49,30,20,-10,30,20,10,69_39_49,30_20_-10,20_30_10,1,1,10,query_right,49.0,ref_highdim,ref_highdim,ref_right,1.0,1
perfect_responder,./img/object-9_120-levels_1D/object9F0Level119F1Level40.png,./img/object-9_120-levels_1D/object9F0Level69F1Level40.png,./img/object-9_120-levels_1D/object9F0Level99F1Level40.png,0,0,874.4000000003725,p,triplet_task,triplets-canvas-keyboard-response,58,147038,0.0-1.0-0.57,1,True,p,119,69,99,50,20,-30,50,20,30,119_69_99,69,99,50,20,-30,50,20,30,119_69_99,50_20_-30,20_50_30,1,2,30,query_right,99.0,ref_highdim,ref_highdim,ref_right,1.0,1
perfect_responder,./img/object-9_120-levels_1D/object9F0Level29F1Level40.png,./img/object-9_120-levels_1D/object9F0Level89F1Level40.png,./img/object-9_120-levels_1D/object9F0Level59F1Level40.png,0,0,886.9000000003725,p,triplet_task,triplets-canvas-keyboard-response,59,149546,0.0-1.0-0.58,1,True,p,29,89,59,-60,-30,30,60,30,30,29_89_59,59,89,-30,-60,-30,30,60,30,29_59_89,-30_-60_-30,30_60_30,1,2,30,query_left,59.0,ref_lowdim,ref_lowdim,ref_right,1.0,1
perfect_responder,./img/object-9_120-levels_1D/object9F0Level19F1Level40.png,./img/object-9_120-levels_1D/object9F0Level99F1Level40.png,./img/object-9_120-levels_1D/object9F0Level79F1Level40.png,0,0,941.0999999996275,p,triplet_task,triplets-canvas-keyboard-response,60,152059,0.0-1.0-0.59,1,True,p,19,99,79,-80,-60,20,80,60,20,19_99_79,79,99,-60,-80,-20,60,80,20,19_79_99,-60_-80_-20,60_80_20,1,2,20,query_left,79.0,ref_lowdim,ref_lowdim,ref_right,1.0,1
perfect_responder,./img/object-9_120-levels_1D/object9F0Level69F1Level40.png,./img/object-9_120-levels_1D/object9F0Level79F1Level40.png,./img/object-9_120-levels_1D/object9F0Level19F1Level40.png,0,0,920.8000000007451,q,triplet_task,triplets-canvas-keyboard-response,61,154567,0.0-1.0-0.60,1,True,q,69,79,19,-10,50,60,10,50,60,69_79_19,19,79,50,-10,-60,50,10,60,69_19_79,50_-10_-60,10_50_60,1,1,40,query_middle,79.0,ref_highdim,ref_highdim,ref_left,1.0,1
perfect_responder,./img/object-9_120-levels_1D/object9F0Level119F1Level40.png,./img/object-9_120-levels_1D/object9F0Level109F1Level40.png,./img/object-9_120-levels_1D/object9F0Level49F1Level40.png,0,0,768.0,q,triplet_task,triplets-canvas-keyboard-response,62,157070,0.0-1.0-0.61,1,True,q,119,109,49,10,70,60,10,70,60,119_109_49,49,109,70,10,-60,70,10,60,119_49_109,70_10_-60,10_70_60,1,1,60,query_right,109.0,ref_highdim,ref_highdim,ref_left,1.0,1
perfect_responder,./img/object-9_120-levels_1D/object9F0Level19F1Level40.png,./img/object-9_120-levels_1D/object9F0Level49F1Level40.png,./img/object-9_120-levels_1D/object9F0Level79F1Level40.png,0,0,1009.7000000001863,q,triplet_task,triplets-canvas-keyboard-response,63,159576,0.0-1.0-0.62,1,True,q,19,49,79,-30,-60,-30,30,60,30,19_49_79,49,79,-30,-60,-30,30,60,30,19_49_79,-30_-60_-30,30_60_30,1,3,30,query_left,49.0,ref_lowdim,ref_lowdim,ref_left,1.0,1
perfect_responder,./img/object-9_120-levels_1D/object9F0Level29F1Level40.png,./img/object-9_120-levels_1D/object9F0Level79F1Level40.png,./img/object-9_120-levels_1D/object9F0Level109F1Level40.png,0,0,828.2000000001863,q,triplet_task,triplets-canvas-keyboard-response,64,162084,0.0-1.0-0.63,1,True,q,29,79,109,-50,-80,-30,50,80,30,29_79_109,79,109,-50,-80,-30,50,80,30,29_79_109,-50_-80_-30,50_80_30,1,1,30,query_left,79.0,ref_lowdim,ref_lowdim,ref_left,1.0,1
perfect_responder,./img/object-9_120-levels_1D/object9F0Level59F1Level40.png,./img/object-9_120-levels_1D/object9F0Level19F1Level40.png,./img/object-9_120-levels_1D/object9F0Level79F1Level40.png,0,0,1170.6000000005588,p,triplet_task,triplets-canvas-keyboard-response,65,164591,0.0-1.0-0.64,1,True,p,59,19,79,40,-20,-60,40,20,60,59_19_79,19,79,40,-20,-60,40,20,60,59_19_79,40_-20_-60,20_40_60,1,1,20,query_middle,79.0,ref_highdim,ref_highdim,ref_right,1.0,1
perfect_responder,./img/object-9_120-levels_1D/object9F0Level89F1Level40.png,./img/object-9_120-levels_1D/object9F0Level19F1Level40.png,./img/object-9_120-levels_1D/object9F0Level49F1Level40.png,0,0,1078.8999999994412,p,triplet_task,triplets-canvas-keyboard-response,66,167098,0.0-1.0-0.65,1,True,p,89,19,49,70,40,-30,70,40,30,89_19_49,19,49,70,40,-30,70,40,30,89_19_49,70_40_-30,40_70_30,1,1,30,query_right,49.0,ref_highdim,ref_highdim,ref_right,1.0,1
perfect_responder,./img/object-9_120-levels_1D/object9F0Level109F1Level40.png,./img/object-9_120-levels_1D/object9F0Level79F1Level40.png,./img/object-9_120-levels_1D/object9F0Level49F1Level40.png,0,0,746.3999999994412,q,triplet_task,triplets-canvas-keyboard-response,67,169608,0.0-1.0-0.66,1,True,q,109,79,49,30,60,30,30,60,30,109_79_49,49,79,60,30,-30,60,30,30,109_49_79,60_30_-30,30_60_30,1,2,30,query_right,79.0,ref_highdim,ref_highdim,ref_left,1.0,1
perfect_responder,./img/object-9_120-levels_1D/object9F0Level59F1Level40.png,./img/object-9_120-levels_1D/object9F0Level19F1Level40.png,./img/object-9_120-levels_1D/object9F0Level69F1Level40.png,0,0,802.6000000005588,p,triplet_task,triplets-canvas-keyboard-response,68,172115,0.0-1.0-0.67,1,True,p,59,19,69,40,-10,-50,40,10,50,59_19_69,19,69,40,-10,-50,40,10,50,59_19_69,40_-10_-50,10_40_50,1,2,30,query_middle,69.0,ref_highdim,ref_highdim,ref_right,1.0,1
perfect_responder,./img/object-9_120-levels_1D/object9F0Level79F1Level40.png,./img/object-9_120-levels_1D/object9F0Level49F1Level40.png,./img/object-9_120-levels_1D/object9F0Level119F1Level40.png,0,0,1294.4000000003725,q,triplet_task,triplets-canvas-keyboard-response,69,174623,0.0-1.0-0.68,1,True,q,79,49,119,30,-40,-70,30,40,70,79_49_119,49,119,30,-40,-70,30,40,70,79_49_119,30_-40_-70,30_40_70,1,2,10,query_middle,49.0,ref_lowdim,ref_lowdim,ref_left,1.0,1
perfect_responder,./img/object-9_120-levels_1D/object9F0Level49F1Level40.png,./img/object-9_120-levels_1D/object9F0Level119F1Level40.png,./img/object-9_120-levels_1D/object9F0Level29F1Level40.png,0,0,1051.9000000003725,p,triplet_task,triplets-canvas-keyboard-response,70,177131,0.0-1.0-0.69,1,True,p,49,119,29,-70,20,90,70,20,90,49_119_29,29,119,20,-70,-90,20,70,90,49_29_119,20_-70_-90,20_70_90,1,1,50,query_middle,29.0,ref_lowdim,ref_lowdim,ref_right,1.0,1
perfect_responder,./img/object-9_120-levels_1D/object9F0Level69F1Level40.png,./img/object-9_120-levels_1D/object9F0Level19F1Level40.png,./img/object-9_120-levels_1D/object9F0Level99F1Level40.png,0,0,1034.2999999998137,p,triplet_task,triplets-canvas-keyboard-response,71,179636,0.0-1.0-0.70,1,True,p,69,19,99,50,-30,-80,50,30,80,69_19_99,19,99,50,-30,-80,50,30,80,69_19_99,50_-30_-80,30_50_80,1,2,20,query_middle,99.0,ref_highdim,ref_highdim,ref_right,1.0,1
perfect_responder,./img/object-9_120-levels_1D/object9F0Level99F1Level40.png,./img/object-9_120-levels_1D/object9F0Level39F1Level40.png,./img/object-9_120-levels_1D/object9F0Level19F1Level40.png,0,0,1167.199999999255,q,triplet_task,triplets-canvas-keyboard-response,72,182146,0.0-1.0-0.71,1,True,q,99,39,19,60,80,20,60,80,20,99_39_19,19,39,80,60,-20,80,60,20,99_19_39,80_60_-20,60_80_20,1,1,20,query_right,39.0,ref_highdim,ref_highdim,ref_left,1.0,1
perfect_responder,./img/object-9_120-levels_1D/object9F0Level119F1Level40.png,./img/object-9_120-levels_1D/object9F0Level29F1Level40.png,./img/object-9_120-levels_1D/object9F0Level89F1Level40.png,0,0,849.1000000005588,p,triplet_task,triplets-canvas-keyboard-response,73,184654,0.0-1.0-0.72,1,True,p,119,29,89,90,30,-60,90,30,60,119_29_89,29,89,90,30,-60,90,30,60,119_29_89,90_30_-60,30_90_60,1,1,60,query_right,89.0,ref_highdim,ref_highdim,ref_right,1.0,1
perfect_responder,./img/object-9_120-levels_1D/object9F0Level89F1Level40.png,./img/object-9_120-levels_1D/object9F0Level109F1Level40.png,./img/object-9_120-levels_1D/object9F0Level79F1Level40.png,0,0,1071.2999999998137,p,triplet_task,triplets-canvas-keyboard-response,74,187162,0.0-1.0-0.73,1,True,p,89,109,79,-20,10,30,20,10,30,89_109_79,79,109,10,-20,-30,10,20,30,89_79_109,10_-20_-30,10_20_30,1,2,10,query_middle,79.0,ref_lowdim,ref_lowdim,ref_right,1.0,1
perfect_responder,./img/object-9_120-levels_1D/object9F0Level69F1Level40.png,./img/object-9_120-levels_1D/object9F0Level49F1Level40.png,./img/object-9_120-levels_1D/object9F0Level29F1Level40.png,0,0,1173.4000000003725,q,triplet_task,triplets-canvas-keyboard-response,75,189669,0.0-1.0-0.74,1,True,q,69,49,29,20,40,20,20,40,20,69_49_29,29,49,40,20,-20,40,20,20,69_29_49,40_20_-20,20_40_20,1,2,20,query_right,49.0,ref_highdim,ref_highdim,ref_left,1.0,1
perfect_responder,./img/object-9_120-levels_1D/object9F0Level19F1Level40.png,./img/object-9_120-levels_1D/object9F0Level79F1Level40.png,./img/object-9_120-levels_1D/object9F0Level59F1Level40.png,0,0,931.0999999996275,p,triplet_task,triplets-canvas-keyboard-response,76,192177,0.0-1.0-0.75,1,True,p,19,79,59,-60,-40,20,60,40,20,19_79_59,59,79,-40,-60,-20,40,60,20,19_59_79,-40_-60_-20,40_60_20,1,1,20,query_left,59.0,ref_lowdim,ref_lowdim,ref_right,1.0,1
perfect_responder,./img/object-9_120-levels_1D/object9F0Level39F1Level40.png,./img/object-9_120-levels_1D/object9F0Level69F1Level40.png,./img/object-9_120-levels_1D/object9F0Level59F1Level40.png,0,0,1078.0,p,triplet_task,triplets-canvas-keyboard-response,77,194685,0.0-1.0-0.76,1,True,p,39,69,59,-30,-20,10,30,20,10,39_69_59,59,69,-20,-30,-10,20,30,10,39_59_69,-20_-30_-10,20_30_10,1,3,10,query_left,59.0,ref_lowdim,ref_lowdim,ref_right,1.0,1
perfect_responder,./img/object-9_120-levels_1D/object9F0Level89F1Level40.png,./img/object-9_120-levels_1D/object9F0Level19F1Level40.png,./img/object-9_120-levels_1D/object9F0Level29F1Level40.png,0,0,1210.5999999996275,p,triplet_task,triplets-canvas-keyboard-response,78,197193,0.0-1.0-0.77,1,True,p,89,19,29,70,60,-10,70,60,10,89_19_29,19,29,70,60,-10,70,60,10,89_19_29,70_60_-10,60_70_10,1,1,10,query_right,29.0,ref_highdim,ref_highdim,ref_right,1.0,1
perfect_responder,./img/object-9_120-levels_1D/object9F0Level19F1Level40.png,./img/object-9_120-levels_1D/object9F0Level49F1Level40.png,./img/object-9_120-levels_1D/object9F0Level99F1Level40.png,0,0,1042.8999999994412,q,triplet_task,triplets-canvas-keyboard-response,79,199701,0.0-1.0-0.78,1,True,q,19,49,99,-30,-80,-50,30,80,50,19_49_99,49,99,-30,-80,-50,30,80,50,19_49_99,-30_-80_-50,30_80_50,1,1,50,query_left,49.0,ref_lowdim,ref_lowdim,ref_left,1.0,1
perfect_responder,./img/object-9_120-levels_1D/object9F0Level49F1Level40.png,./img/object-9_120-levels_1D/object9F0Level39F1Level40.png,./img/object-9_120-levels_1D/object9F0Level69F1Level40.png,0,0,889.9000000003725,q,triplet_task,triplets-canvas-keyboard-response,80,202208,0.0-1.0-0.79,1,True,q,49,39,69,10,-20,-30,10,20,30,49_39_69,39,69,10,-20,-30,10,20,30,49_39_69,10_-20_-30,10_20_30,1,3,10,query_middle,39.0,ref_lowdim,ref_lowdim,ref_left,1.0,1
perfect_responder,./img/object-9_120-levels_1D/object9F0Level109F1Level40.png,./img/object-9_120-levels_1D/object9F0Level49F1Level40.png,./img/object-9_120-levels_1D/object9F0Level99F1Level40.png,0,0,722.3999999994412,p,triplet_task,triplets-canvas-keyboard-response,81,204716,0.0-1.0-0.80,1,True,p,109,49,99,60,10,-50,60,10,50,109_49_99,49,99,60,10,-50,60,10,50,109_49_99,60_10_-50,10_60_50,1,1,50,query_right,99.0,ref_highdim,ref_highdim,ref_right,1.0,1
perfect_responder,./img/object-9_120-levels_1D/object9F0Level89F1Level40.png,./img/object-9_120-levels_1D/object9F0Level39F1Level40.png,./img/object-9_120-levels_1D/object9F0Level79F1Level40.png,0,0,659.4000000003725,p,triplet_task,triplets-canvas-keyboard-response,82,207224,0.0-1.0-0.81,1,True,p,89,39,79,50,10,-40,50,10,40,89_39_79,39,79,50,10,-40,50,10,40,89_39_79,50_10_-40,10_50_40,1,1,40,query_right,79.0,ref_highdim,ref_highdim,ref_right,1.0,1
perfect_responder,./img/object-9_120-levels_1D/object9F0Level29F1Level40.png,./img/object-9_120-levels_1D/object9F0Level49F1Level40.png,./img/object-9_120-levels_1D/object9F0Level19F1Level40.png,0,0,851.5,p,triplet_task,triplets-canvas-keyboard-response,83,209731,0.0-1.0-0.82,1,True,p,29,49,19,-20,10,30,20,10,30,29_49_19,19,49,10,-20,-30,10,20,30,29_19_49,10_-20_-30,10_20_30,1,4,10,query_middle,19.0,ref_lowdim,ref_lowdim,ref_right,1.0,1
perfect_responder,./img/object-9_120-levels_1D/object9F0Level119F1Level40.png,./img/object-9_120-levels_1D/object9F0Level99F1Level40.png,./img/object-9_120-levels_1D/object9F0Level49F1Level40.png,0,0,1058.7000000001863,q,triplet_task,triplets-canvas-keyboard-response,1,3919,0.0-1.0-0.0,2,True,q,119,99,49,20,70,50,20,70,50,119_99_49,49,99,70,20,-50,70,20,50,119_49_99,70_20_-50,20_70_50,1,1,50,query_right,99.0,ref_highdim,ref_highdim,ref_left,1.0,1
perfect_responder,./img/object-9_120-levels_1D/object9F0Level39F1Level40.png,./img/object-9_120-levels_1D/object9F0Level29F1Level40.png,./img/object-9_120-levels_1D/object9F0Level109F1Level40.png,0,0,845.0,q,triplet_task,triplets-canvas-keyboard-response,2,6427,0.0-1.0-0.1,2,True,q,39,29,109,10,-70,-80,10,70,80,39_29_109,29,109,10,-70,-80,10,70,80,39_29_109,10_-70_-80,10_70_80,1,2,60,query_middle,29.0,ref_lowdim,ref_lowdim,ref_left,1.0,1
perfect_responder,./img/object-9_120-levels_1D/object9F0Level79F1Level40.png,./img/object-9_120-levels_1D/object9F0Level49F1Level40.png,./img/object-9_120-levels_1D/object9F0Level29F1Level40.png,0,0,1547.7999999998137,q,triplet_task,triplets-canvas-keyboard-response,3,8934,0.0-1.0-0.2,2,True,q,79,49,29,30,50,20,30,50,20,79_49_29,29,49,50,30,-20,50,30,20,79_29_49,50_30_-20,30_50_20,1,2,20,query_right,49.0,ref_highdim,ref_highdim,ref_left,1.0,1
perfect_responder,./img/object-9_120-levels_1D/object9F0Level89F1Level40.png,./img/object-9_120-levels_1D/object9F0Level79F1Level40.png,./img/object-9_120-levels_1D/object9F0Level49F1Level40.png,0,0,780.1000000005588,q,triplet_task,triplets-canvas-keyboard-response,4,11438,0.0-1.0-0.3,2,True,q,89,79,49,10,40,30,10,40,30,89_79_49,49,79,40,10,-30,40,10,30,89_49_79,40_10_-30,10_40_30,1,3,30,query_right,79.0,ref_highdim,ref_highdim,ref_left,1.0,1
perfect_responder,./img/object-9_120-levels_1D/object9F0Level19F1Level40.png,./img/object-9_120-levels_1D/object9F0Level109F1Level40.png,./img/object-9_120-levels_1D/object9F0Level49F1Level40.png,0,0,751.2999999998137,p,triplet_task,triplets-canvas-keyboard-response,5,13944,0.0-1.0-0.4,2,True,p,19,109,49,-90,-30,60,90,30,60,19_109_49,49,109,-30,-90,-60,30,90,60,19_49_109,-30_-90_-60,30_90_60,1,1,60,query_left,49.0,ref_lowdim,ref_lowdim,ref_right,1.0,1
perfect_responder,./img/object-9_120-levels_1D/object9F0Level119F1Level40.png,./img/object-9_120-levels_1D/object9F0Level29F1Level40.png,./img/object-9_120-levels_1D/object9F0Level19F1Level40.png,0,0,1035.2000000001863,q,triplet_task,triplets-canvas-keyboard-response,6,16452,0.0-1.0-0.5,2,True,q,119,29,19,90,100,10,90,100,10,119_29_19,19,29,100,90,-10,100,90,10,119_19_29,100_90_-10,90_100_10,1,1,10,query_right,29.0,ref_highdim,ref_highdim,ref_left,1.0,1
perfect_responder,./img/object-9_120-levels_1D/object9F0Level79F1Level40.png,./img/object-9_120-levels_1D/object9F0Level49F1Level40.png,./img/object-9_120-levels_1D/object9F0Level99F1Level40.png,0,0,807.9000000003725,p,triplet_task,triplets-canvas-keyboard-response,7,18960,0.0-1.0-0.6,2,True,p,79,49,99,30,-20,-50,30,20,50,79_49_99,49,99,30,-20,-50,30,20,50,79_49_99,30_-20_-50,20_30_50,1,1,10,query_middle,99.0,ref_highdim,ref_highdim,ref_right,1.0,1
perfect_responder,./img/object-9_120-levels_1D/object9F0Level109F1Level40.png,./img/object-9_120-levels_1D/object9F0Level39F1Level40.png,./img/object-9_120-levels_1D/object9F0Level59F1Level40.png,0,0,1030.199999999255,p,triplet_task,triplets-canvas-keyboard-response,8,21467,0.0-1.0-0.7,2,True,p,109,39,59,70,50,-20,70,50,20,109_39_59,39,59,70,50,-20,70,50,20,109_39_59,70_50_-20,50_70_20,1,1,20,query_right,59.0,ref_highdim,ref_highdim,ref_right,1.0,1
perfect_responder,./img/object-9_120-levels_1D/object9F0Level19F1Level40.png,./img/object-9_120-levels_1D/object9F0Level99F1Level40.png,./img/object-9_120-levels_1D/object9F0Level109F1Level40.png,0,0,1522.6000000005588,q,triplet_task,triplets-canvas-keyboard-response,9,23975,0.0-1.0-0.8,2,True,q,19,99,109,-80,-90,-10,80,90,10,19_99_109,99,109,-80,-90,-10,80,90,10,19_99_109,-80_-90_-10,80_90_10,1,2,10,query_left,99.0,ref_lowdim,ref_lowdim,ref_left,1.0,1
perfect_responder,./img/object-9_120-levels_1D/object9F0Level119F1Level40.png,./img/object-9_120-levels_1D/object9F0Level59F1Level40.png,./img/object-9_120-levels_1D/object9F0Level69F1Level40.png,0,0,889.3999999994412,p,triplet_task,triplets-canvas-keyboard-response,10,26483,0.0-1.0-0.9,2,True,p,119,59,69,60,50,-10,60,50,10,119_59_69,59,69,60,50,-10,60,50,10,119_59_69,60_50_-10,50_60_10,1,1,10,query_right,69.0,ref_highdim,ref_highdim,ref_right,1.0,1
perfect_responder,./img/object-9_120-levels_1D/object9F0Level19F1Level40.png,./img/object-9_120-levels_1D/object9F0Level109F1Level40.png,./img/object-9_120-levels_1D/object9F0Level29F1Level40.png,0,0,677.0999999996275,p,triplet_task,triplets-canvas-keyboard-response,11,28990,0.0-1.0-0.10,2,True,p,19,109,29,-90,-10,80,90,10,80,19_109_29,29,109,-10,-90,-80,10,90,80,19_29_109,-10_-90_-80,10_90_80,1,1,80,query_left,29.0,ref_lowdim,ref_lowdim,ref_right,1.0,1
perfect_responder,./img/object-9_120-levels_1D/object9F0Level109F1Level40.png,./img/object-9_120-levels_1D/object9F0Level69F1Level40.png,./img/object-9_120-levels_1D/object9F0Level39F1Level40.png,0,0,959.2999999998137,q,triplet_task,triplets-canvas-keyboard-response,12,31499,0.0-1.0-0.11,2,True,q,109,69,39,40,70,30,40,70,30,109_69_39,39,69,70,40,-30,70,40,30,109_39_69,70_40_-30,40_70_30,1,2,30,query_right,69.0,ref_highdim,ref_highdim,ref_left,1.0,1
perfect_responder,./img/object-9_120-levels_1D/object9F0Level99F1Level40.png,./img/object-9_120-levels_1D/object9F0Level109F1Level40.png,./img/object-9_120-levels_1D/object9F0Level29F1Level40.png,0,0,625.4000000003725,q,triplet_task,triplets-canvas-keyboard-response,13,34002,0.0-1.0-0.12,2,True,q,99,109,29,-10,70,80,10,70,80,99_109_29,29,109,70,-10,-80,70,10,80,99_29_109,70_-10_-80,10_70_80,1,1,60,query_middle,109.0,ref_highdim,ref_highdim,ref_left,1.0,1
perfect_responder,./img/object-9_120-levels_1D/object9F0Level109F1Level40.png,./img/object-9_120-levels_1D/object9F0Level99F1Level40.png,./img/object-9_120-levels_1D/object9F0Level79F1Level40.png,0,0,927.5999999996275,q,triplet_task,triplets-canvas-keyboard-response,14,36509,0.0-1.0-0.13,2,True,q,109,99,79,10,30,20,10,30,20,109_99_79,79,99,30,10,-20,30,10,20,109_79_99,30_10_-20,10_30_20,1,3,20,query_right,99.0,ref_highdim,ref_highdim,ref_left,1.0,1
perfect_responder,./img/object-9_120-levels_1D/object9F0Level49F1Level40.png,./img/object-9_120-levels_1D/object9F0Level59F1Level40.png,./img/object-9_120-levels_1D/object9F0Level39F1Level40.png,0,0,1043.7999999998137,p,triplet_task,triplets-canvas-keyboard-response,15,39023,0.0-1.0-0.14,2,,,49,59,39,-10,10,20,10,10,20,49_59_39,39,59,10,-10,-20,10,10,20,49_39_59,10_-10_-20,10_10_20,1,4,0,query_middle,39.0,ref_lowdim,nan,nan,,1
perfect_responder,./img/object-9_120-levels_1D/object9F0Level69F1Level40.png,./img/object-9_120-levels_1D/object9F0Level29F1Level40.png,./img/object-9_120-levels_1D/object9F0Level99F1Level40.png,0,0,842.2999999998137,p,triplet_task,triplets-canvas-keyboard-response,16,41530,0.0-1.0-0.15,2,True,p,69,29,99,40,-30,-70,40,30,70,69_29_99,29,99,40,-30,-70,40,30,70,69_29_99,40_-30_-70,30_40_70,1,1,10,query_middle,99.0,ref_highdim,ref_highdim,ref_right,1.0,1
perfect_responder,./img/object-9_120-levels_1D/object9F0Level59F1Level40.png,./img/object-9_120-levels_1D/object9F0Level79F1Level40.png,./img/object-9_120-levels_1D/object9F0Level99F1Level40.png,0,0,915.0999999996275,q,triplet_task,triplets-canvas-keyboard-response,17,44038,0.0-1.0-0.16,2,True,q,59,79,99,-20,-40,-20,20,40,20,59_79_99,79,99,-20,-40,-20,20,40,20,59_79_99,-20_-40_-20,20_40_20,1,2,20,query_left,79.0,ref_lowdim,ref_lowdim,ref_left,1.0,1
perfect_responder,./img/object-9_120-levels_1D/object9F0Level49F1Level40.png,./img/object-9_120-levels_1D/object9F0Level99F1Level40.png,./img/object-9_120-levels_1D/object9F0Level89F1Level40.png,0,0,1392.0999999996275,p,triplet_task,triplets-canvas-keyboard-response,18,46546,0.0-1.0-0.17,2,True,p,49,99,89,-50,-40,10,50,40,10,49_99_89,89,99,-40,-50,-10,40,50,10,49_89_99,-40_-50_-10,40_50_10,1,2,10,query_left,89.0,ref_lowdim,ref_lowdim,ref_right,1.0,1
perfect_responder,./img/object-9_120-levels_1D/object9F0Level69F1Level40.png,./img/object-9_120-levels_1D/object9F0Level19F1Level40.png,./img/object-9_120-levels_1D/object9F0Level29F1Level40.png,0,0,1359.300000000745,p,triplet_task,triplets-canvas-keyboard-response,19,49053,0.0-1.0-0.18,2,True,p,69,19,29,50,40,-10,50,40,10,69_19_29,19,29,50,40,-10,50,40,10,69_19_29,50_40_-10,40_50_10,1,1,10,query_right,29.0,ref_highdim,ref_highdim,ref_right,1.0,1
perfect_responder,./img/object-9_120-levels_1D/object9F0Level49F1Level40.png,./img/object-9_120-levels_1D/object9F0Level19F1Level40.png,./img/object-9_120-levels_1D/object9F0Level119F1Level40.png,0,0,951.8000000007451,q,triplet_task,triplets-canvas-keyboard-response,20,51561,0.0-1.0-0.19,2,True,q,49,19,119,30,-70,-100,30,70,100,49_19_119,19,119,30,-70,-100,30,70,100,49_19_119,30_-70_-100,30_70_100,1,1,40,query_middle,19.0,ref_lowdim,ref_lowdim,ref_left,1.0,1
perfect_responder,./img/object-9_120-levels_1D/object9F0Level29F1Level40.png,./img/object-9_120-levels_1D/object9F0Level89F1Level40.png,./img/object-9_120-levels_1D/object9F0Level19F1Level40.png,0,0,663.7000000001863,p,triplet_task,triplets-canvas-keyboard-response,21,54069,0.0-1.0-0.20,2,True,p,29,89,19,-60,10,70,60,10,70,29_89_19,19,89,10,-60,-70,10,60,70,29_19_89,10_-60_-70,10_60_70,1,2,50,query_middle,19.0,ref_lowdim,ref_lowdim,ref_right,1.0,1
perfect_responder,./img/object-9_120-levels_1D/object9F0Level39F1Level40.png,./img/object-9_120-levels_1D/object9F0Level69F1Level40.png,./img/object-9_120-levels_1D/object9F0Level29F1Level40.png,0,0,736.5,p,triplet_task,triplets-canvas-keyboard-response,22,56577,0.0-1.0-0.21,2,True,p,39,69,29,-30,10,40,30,10,40,39_69_29,29,69,10,-30,-40,10,30,40,39_29_69,10_-30_-40,10_30_40,1,1,20,query_middle,29.0,ref_lowdim,ref_lowdim,ref_right,1.0,1
perfect_responder,./img/object-9_120-levels_1D/object9F0Level89F1Level40.png,./img/object-9_120-levels_1D/object9F0Level39F1Level40.png,./img/object-9_120-levels_1D/object9F0Level19F1Level40.png,0,0,748.2999999998137,q,triplet_task,triplets-canvas-keyboard-response,23,59084,0.0-1.0-0.22,2,True,q,89,39,19,50,70,20,50,70,20,89_39_19,19,39,70,50,-20,70,50,20,89_19_39,70_50_-20,50_70_20,1,2,20,query_right,39.0,ref_highdim,ref_highdim,ref_left,1.0,1
perfect_responder,./img/object-9_120-levels_1D/object9F0Level29F1Level40.png,./img/object-9_120-levels_1D/object9F0Level89F1Level40.png,./img/object-9_120-levels_1D/object9F0Level49F1Level40.png,0,0,625.7999999998137,p,triplet_task,triplets-canvas-keyboard-response,24,61592,0.0-1.0-0.23,2,True,p,29,89,49,-60,-20,40,60,20,40,29_89_49,49,89,-20,-60,-40,20,60,40,29_49_89,-20_-60_-40,20_60_40,1,1,40,query_left,49.0,ref_lowdim,ref_lowdim,ref_right,1.0,1
perfect_responder,./img/object-9_120-levels_1D/object9F0Level109F1Level40.png,./img/object-9_120-levels_1D/object9F0Level39F1Level40.png,./img/object-9_120-levels_1D/object9F0Level19F1Level40.png,0,0,713.4000000003725,q,triplet_task,triplets-canvas-keyboard-response,25,64100,0.0-1.0-0.24,2,True,q,109,39,19,70,90,20,70,90,20,109_39_19,19,39,90,70,-20,90,70,20,109_19_39,90_70_-20,70_90_20,1,1,20,query_right,39.0,ref_highdim,ref_highdim,ref_left,1.0,1
perfect_responder,./img/object-9_120-levels_1D/object9F0Level59F1Level40.png,./img/object-9_120-levels_1D/object9F0Level79F1Level40.png,./img/object-9_120-levels_1D/object9F0Level29F1Level40.png,0,0,995.2999999998137,q,triplet_task,triplets-canvas-keyboard-response,26,66607,0.0-1.0-0.25,2,True,q,59,79,29,-20,30,50,20,30,50,59_79_29,29,79,30,-20,-50,30,20,50,59_29_79,30_-20_-50,20_30_50,1,2,10,query_middle,79.0,ref_highdim,ref_highdim,ref_left,1.0,1
perfect_responder,./img/object-9_120-levels_1D/object9F0Level49F1Level40.png,./img/object-9_120-levels_1D/object9F0Level29F1Level40.png,./img/object-9_120-levels_1D/object9F0Level89F1Level40.png,0,0,840.9000000003725,q,triplet_task,triplets-canvas-keyboard-response,27,69115,0.0-1.0-0.26,2,True,q,49,29,89,20,-40,-60,20,40,60,49_29_89,29,89,20,-40,-60,20,40,60,49_29_89,20_-40_-60,20_40_60,1,2,20,query_middle,29.0,ref_lowdim,ref_lowdim,ref_left,1.0,1
perfect_responder,./img/object-9_120-levels_1D/object9F0Level19F1Level40.png,./img/object-9_120-levels_1D/object9F0Level49F1Level40.png,./img/object-9_120-levels_1D/object9F0Level29F1Level40.png,0,0,600.0,p,triplet_task,triplets-canvas-keyboard-response,28,71623,0.0-1.0-0.27,2,True,p,19,49,29,-30,-10,20,30,10,20,19_49_29,29,49,-10,-30,-20,10,30,20,19_29_49,-10_-30_-20,10_30_20,1,1,20,query_left,29.0,ref_lowdim,ref_lowdim,ref_right,1.0,1
perfect_responder,./img/object-9_120-levels_1D/object9F0Level39F1Level40.png,./img/object-9_120-levels_1D/object9F0Level109F1Level40.png,./img/object-9_120-levels_1D/object9F0Level119F1Level40.png,0,0,1077.7000000001863,q,triplet_task,triplets-canvas-keyboard-response,29,74131,0.0-1.0-0.28,2,True,q,39,109,119,-70,-80,-10,70,80,10,39_109_119,109,119,-70,-80,-10,70,80,10,39_109_119,-70_-80_-10,70_80_10,1,1,10,query_left,109.0,ref_lowdim,ref_lowdim,ref_left,1.0,1
perfect_responder,./img/object-9_120-levels_1D/object9F0Level59F1Level40.png,./img/object-9_120-levels_1D/object9F0Level39F1Level40.png,./img/object-9_120-levels_1D/object9F0Level79F1Level40.png,0,0,1389.2000000001863,p,triplet_task,triplets-canvas-keyboard-response,30,76639,0.0-1.0-0.29,2,,,59,39,79,20,-20,-40,20,20,40,59_39_79,39,79,20,-20,-40,20,20,40,59_39_79,20_-20_-40,20_20_40,1,2,0,query_middle,79.0,ref_highdim,nan,nan,,1
perfect_responder,./img/object-9_120-levels_1D/object9F0Level99F1Level40.png,./img/object-9_120-levels_1D/object9F0Level29F1Level40.png,./img/object-9_120-levels_1D/object9F0Level89F1Level40.png,0,0,771.7999999998137,p,triplet_task,triplets-canvas-keyboard-response,31,79146,0.0-1.0-0.30,2,True,p,99,29,89,70,10,-60,70,10,60,99_29_89,29,89,70,10,-60,70,10,60,99_29_89,70_10_-60,10_70_60,1,2,60,query_right,89.0,ref_highdim,ref_highdim,ref_right,1.0,1
perfect_responder,./img/object-9_120-levels_1D/object9F0Level119F1Level40.png,./img/object-9_120-levels_1D/object9F0Level69F1Level40.png,./img/object-9_120-levels_1D/object9F0Level89F1Level40.png,0,0,634.1999999992549,p,triplet_task,triplets-canvas-keyboard-response,32,81654,0.0-1.0-0.31,2,True,p,119,69,89,50,30,-20,50,30,20,119_69_89,69,89,50,30,-20,50,30,20,119_69_89,50_30_-20,30_50_20,1,3,20,query_right,89.0,ref_highdim,ref_highdim,ref_right,1.0,1
perfect_responder,./img/object-9_120-levels_1D/object9F0Level39F1Level40.png,./img/object-9_120-levels_1D/object9F0Level79F1Level40.png,./img/object-9_120-levels_1D/object9F0Level19F1Level40.png,0,0,826.7000000001863,p,triplet_task,triplets-canvas-keyboard-response,33,84162,0.0-1.0-0.32,2,True,p,39,79,19,-40,20,60,40,20,60,39_79_19,19,79,20,-40,-60,20,40,60,39_19_79,20_-40_-60,20_40_60,1,3,20,query_middle,19.0,ref_lowdim,ref_lowdim,ref_right,1.0,1
perfect_responder,./img/object-9_120-levels_1D/object9F0Level89F1Level40.png,./img/object-9_120-levels_1D/object9F0Level59F1Level40.png,./img/object-9_120-levels_1D/object9F0Level69F1Level40.png,0,0,1363.7000000001863,p,triplet_task,triplets-canvas-keyboard-response,34,86670,0.0-1.0-0.33,2,True,p,89,59,69,30,20,-10,30,20,10,89_59_69,59,69,30,20,-10,30,20,10,89_59_69,30_20_-10,20_30_10,1,2,10,query_right,69.0,ref_highdim,ref_highdim,ref_right,1.0,1
perfect_responder,./img/object-9_120-levels_1D/object9F0Level19F1Level40.png,./img/object-9_120-levels_1D/object9F0Level69F1Level40.png,./img/object-9_120-levels_1D/object9F0Level39F1Level40.png,0,0,701.0,p,triplet_task,triplets-canvas-keyboard-response,35,89177,0.0-1.0-0.34,2,True,p,19,69,39,-50,-20,30,50,20,30,19_69_39,39,69,-20,-50,-30,20,50,30,19_39_69,-20_-50_-30,20_50_30,1,2,30,query_left,39.0,ref_lowdim,ref_lowdim,ref_right,1.0,1
perfect_responder,./img/object-9_120-levels_1D/object9F0Level119F1Level40.png,./img/object-9_120-levels_1D/object9F0Level109F1Level40.png,./img/object-9_120-levels_1D/object9F0Level69F1Level40.png,0,0,654.2999999998137,q,triplet_task,triplets-canvas-keyboard-response,36,91685,0.0-1.0-0.35,2,True,q,119,109,69,10,50,40,10,50,40,119_109_69,69,109,50,10,-40,50,10,40,119_69_109,50_10_-40,10_50_40,1,2,40,query_right,109.0,ref_highdim,ref_highdim,ref_left,1.0,1
perfect_responder,./img/object-9_120-levels_1D/object9F0Level29F1Level40.png,./img/object-9_120-levels_1D/object9F0Level119F1Level40.png,./img/object-9_120-levels_1D/object9F0Level19F1Level40.png,0,0,605.9000000003725,p,triplet_task,triplets-canvas-keyboard-response,37,94193,0.0-1.0-0.36,2,True,p,29,119,19,-90,10,100,90,10,100,29_119_19,19,119,10,-90,-100,10,90,100,29_19_119,10_-90_-100,10_90_100,1,1,80,query_middle,19.0,ref_lowdim,ref_lowdim,ref_right,1.0,1
perfect_responder,./img/object-9_120-levels_1D/object9F0Level19F1Level40.png,./img/object-9_120-levels_1D/object9F0Level119F1Level40.png,./img/object-9_120-levels_1D/object9F0Level99F1Level40.png,0,0,1187.5,p,triplet_task,triplets-canvas-keyboard-response,38,96701,0.0-1.0-0.37,2,True,p,19,119,99,-100,-80,20,100,80,20,19_119_99,99,119,-80,-100,-20,80,100,20,19_99_119,-80_-100_-20,80_100_20,1,1,20,query_left,99.0,ref_lowdim,ref_lowdim,ref_right,1.0,1
perfect_responder,./img/object-9_120-levels_1D/object9F0Level109F1Level40.png,./img/object-9_120-levels_1D/object9F0Level79F1Level40.png,./img/object-9_120-levels_1D/object9F0Level19F1Level40.png,0,0,1080.5999999996275,q,triplet_task,triplets-canvas-keyboard-response,39,99208,0.0-1.0-0.38,2,True,q,109,79,19,30,90,60,30,90,60,109_79_19,19,79,90,30,-60,90,30,60,109_19_79,90_30_-60,30_90_60,1,2,60,query_right,79.0,ref_highdim,ref_highdim,ref_left,1.0,1
perfect_responder,./img/object-9_120-levels_1D/object9F0Level29F1Level40.png,./img/object-9_120-levels_1D/object9F0Level59F1Level40.png,./img/object-9_120-levels_1D/object9F0Level19F1Level40.png,0,0,597.7999999998137,p,triplet_task,triplets-canvas-keyboard-response,40,101716,0.0-1.0-0.39,2,True,p,29,59,19,-30,10,40,30,10,40,29_59_19,19,59,10,-30,-40,10,30,40,29_19_59,10_-30_-40,10_30_40,1,2,20,query_middle,19.0,ref_lowdim,ref_lowdim,ref_right,1.0,1
perfect_responder,./img/object-9_120-levels_1D/object9F0Level19F1Level40.png,./img/object-9_120-levels_1D/object9F0Level59F1Level40.png,./img/object-9_120-levels_1D/object9F0Level99F1Level40.png,0,0,685.0,q,triplet_task,triplets-canvas-keyboard-response,41,104224,0.0-1.0-0.40,2,True,q,19,59,99,-40,-80,-40,40,80,40,19_59_99,59,99,-40,-80,-40,40,80,40,19_59_99,-40_-80_-40,40_80_40,1,2,40,query_left,59.0,ref_lowdim,ref_lowdim,ref_left,1.0,1
perfect_responder,./img/object-9_120-levels_1D/object9F0Level109F1Level40.png,./img/object-9_120-levels_1D/object9F0Level69F1Level40.png,./img/object-9_120-levels_1D/object9F0Level29F1Level40.png,0,0,756.9000000003725,q,triplet_task,triplets-canvas-keyboard-response,42,106732,0.0-1.0-0.41,2,True,q,109,69,29,40,80,40,40,80,40,109_69_29,29,69,80,40,-40,80,40,40,109_29_69,80_40_-40,40_80_40,1,1,40,query_right,69.0,ref_highdim,ref_highdim,ref_left,1.0,1
perfect_responder,./img/object-9_120-levels_1D/object9F0Level79F1Level40.png,./img/object-9_120-levels_1D/object9F0Level89F1Level40.png,./img/object-9_120-levels_1D/object9F0Level69F1Level40.png,0,0,784.2999999998137,p,triplet_task,triplets-canvas-keyboard-response,43,109239,0.0-1.0-0.42,2,,,79,89,69,-10,10,20,10,10,20,79_89_69,69,89,10,-10,-20,10,10,20,79_69_89,10_-10_-20,10_10_20,1,5,0,query_middle,69.0,ref_lowdim,nan,nan,,1
perfect_responder,./img/object-9_120-levels_1D/object9F0Level29F1Level40.png,./img/object-9_120-levels_1D/object9F0Level49F1Level40.png,./img/object-9_120-levels_1D/object9F0Level109F1Level40.png,0,0,632.1999999992549,q,triplet_task,triplets-canvas-keyboard-response,44,111746,0.0-1.0-0.43,2,True,q,29,49,109,-20,-80,-60,20,80,60,29_49_109,49,109,-20,-80,-60,20,80,60,29_49_109,-20_-80_-60,20_80_60,1,1,60,query_left,49.0,ref_lowdim,ref_lowdim,ref_left,1.0,1
perfect_responder,./img/object-9_120-levels_1D/object9F0Level69F1Level40.png,./img/object-9_120-levels_1D/object9F0Level39F1Level40.png,./img/object-9_120-levels_1D/object9F0Level119F1Level40.png,0,0,1425.6000000005588,q,triplet_task,triplets-canvas-keyboard-response,45,114255,0.0-1.0-0.44,2,True,q,69,39,119,30,-50,-80,30,50,80,69_39_119,39,119,30,-50,-80,30,50,80,69_39_119,30_-50_-80,30_50_80,1,1,20,query_middle,39.0,ref_lowdim,ref_lowdim,ref_left,1.0,1
perfect_responder,./img/object-9_120-levels_1D/object9F0Level59F1Level40.png,./img/object-9_120-levels_1D/object9F0Level69F1Level40.png,./img/object-9_120-levels_1D/object9F0Level29F1Level40.png,0,0,731.5,q,triplet_task,triplets-canvas-keyboard-response,46,116763,0.0-1.0-0.45,2,True,q,59,69,29,-10,30,40,10,30,40,59_69_29,29,69,30,-10,-40,30,10,40,59_29_69,30_-10_-40,10_30_40,1,1,20,query_middle,69.0,ref_highdim,ref_highdim,ref_left,1.0,1
perfect_responder,./img/object-9_120-levels_1D/object9F0Level19F1Level40.png,./img/object-9_120-levels_1D/object9F0Level119F1Level40.png,./img/object-9_120-levels_1D/object9F0Level79F1Level40.png,0,0,1344.1000000005588,p,triplet_task,triplets-canvas-keyboard-response,47,119270,0.0-1.0-0.46,2,True,p,19,119,79,-100,-60,40,100,60,40,19_119_79,79,119,-60,-100,-40,60,100,40,19_79_119,-60_-100_-40,60_100_40,1,1,40,query_left,79.0,ref_lowdim,ref_lowdim,ref_right,1.0,1
perfect_responder,./img/object-9_120-levels_1D/object9F0Level99F1Level40.png,./img/object-9_120-levels_1D/object9F0Level29F1Level40.png,./img/object-9_120-levels_1D/object9F0Level49F1Level40.png,0,0,1341.0,p,triplet_task,triplets-canvas-keyboard-response,48,121778,0.0-1.0-0.47,2,True,p,99,29,49,70,50,-20,70,50,20,99_29_49,29,49,70,50,-20,70,50,20,99_29_49,70_50_-20,50_70_20,1,3,20,query_right,49.0,ref_highdim,ref_highdim,ref_right,1.0,1
perfect_responder,./img/object-9_120-levels_1D/object9F0Level29F1Level40.png,./img/object-9_120-levels_1D/object9F0Level59F1Level40.png,./img/object-9_120-levels_1D/object9F0Level99F1Level40.png,0,0,811.0,q,triplet_task,triplets-canvas-keyboard-response,49,124292,0.0-1.0-0.48,2,True,q,29,59,99,-30,-70,-40,30,70,40,29_59_99,59,99,-30,-70,-40,30,70,40,29_59_99,-30_-70_-40,30_70_40,1,3,40,query_left,59.0,ref_lowdim,ref_lowdim,ref_left,1.0,1
perfect_responder,./img/object-9_120-levels_1D/object9F0Level79F1Level40.png,./img/object-9_120-levels_1D/object9F0Level49F1Level40.png,./img/object-9_120-levels_1D/object9F0Level69F1Level40.png,0,0,685.0,p,triplet_task,triplets-canvas-keyboard-response,50,126799,0.0-1.0-0.49,2,True,p,79,49,69,30,10,-20,30,10,20,79_49_69,49,69,30,10,-20,30,10,20,79_49_69,30_10_-20,10_30_20,1,4,20,query_right,69.0,ref_highdim,ref_highdim,ref_right,1.0,1
perfect_responder,./img/object-9_120-levels_1D/object9F0Level109F1Level40.png,./img/object-9_120-levels_1D/object9F0Level79F1Level40.png,./img/object-9_120-levels_1D/object9F0Level59F1Level40.png,0,0,817.2999999998137,q,triplet_task,triplets-canvas-keyboard-response,51,129307,0.0-1.0-0.50,2,True,q,109,79,59,30,50,20,30,50,20,109_79_59,59,79,50,30,-20,50,30,20,109_59_79,50_30_-20,30_50_20,1,4,20,query_right,79.0,ref_highdim,ref_highdim,ref_left,1.0,1
perfect_responder,./img/object-9_120-levels_1D/object9F0Level49F1Level40.png,./img/object-9_120-levels_1D/object9F0Level19F1Level40.png,./img/object-9_120-levels_1D/object9F0Level89F1Level40.png,0,0,829.7999999998137,q,triplet_task,triplets-canvas-keyboard-response,52,131815,0.0-1.0-0.51,2,True,q,49,19,89,30,-40,-70,30,40,70,49_19_89,19,89,30,-40,-70,30,40,70,49_19_89,30_-40_-70,30_40_70,1,3,10,query_middle,19.0,ref_lowdim,ref_lowdim,ref_left,1.0,1
perfect_responder,./img/object-9_120-levels_1D/object9F0Level119F1Level40.png,./img/object-9_120-levels_1D/object9F0Level89F1Level40.png,./img/object-9_120-levels_1D/object9F0Level39F1Level40.png,0,0,781.2999999998137,q,triplet_task,triplets-canvas-keyboard-response,53,134323,0.0-1.0-0.52,2,True,q,119,89,39,30,80,50,30,80,50,119_89_39,39,89,80,30,-50,80,30,50,119_39_89,80_30_-50,30_80_50,1,1,50,query_right,89.0,ref_highdim,ref_highdim,ref_left,1.0,1
perfect_responder,./img/object-9_120-levels_1D/object9F0Level99F1Level40.png,./img/object-9_120-levels_1D/object9F0Level49F1Level40.png,./img/object-9_120-levels_1D/object9F0Level59F1Level40.png,0,0,719.2999999998137,p,triplet_task,triplets-canvas-keyboard-response,54,136830,0.0-1.0-0.53,2,True,p,99,49,59,50,40,-10,50,40,10,99_49_59,49,59,50,40,-10,50,40,10,99_49_59,50_40_-10,40_50_10,1,2,10,query_right,59.0,ref_highdim,ref_highdim,ref_right,1.0,1
perfect_responder,./img/object-9_120-levels_1D/object9F0Level39F1Level40.png,./img/object-9_120-levels_1D/object9F0Level99F1Level40.png,./img/object-9_120-levels_1D/object9F0Level69F1Level40.png,0,0,910.8000000007451,p,triplet_task,triplets-canvas-keyboard-response,55,139340,0.0-1.0-0.54,2,True,p,39,99,69,-60,-30,30,60,30,30,39_99_69,69,99,-30,-60,-30,30,60,30,39_69_99,-30_-60_-30,30_60_30,1,4,30,query_left,69.0,ref_lowdim,ref_lowdim,ref_right,1.0,1
perfect_responder,./img/object-9_120-levels_1D/object9F0Level99F1Level40.png,./img/object-9_120-levels_1D/object9F0Level69F1Level40.png,./img/object-9_120-levels_1D/object9F0Level109F1Level40.png,0,0,817.6000000005588,p,triplet_task,triplets-canvas-keyboard-response,56,141846,0.0-1.0-0.55,2,True,p,99,69,109,30,-10,-40,30,10,40,99_69_109,69,109,30,-10,-40,30,10,40,99_69_109,30_-10_-40,10_30_40,1,2,20,query_middle,109.0,ref_highdim,ref_highdim,ref_right,1.0,1
perfect_responder,./img/object-9_120-levels_1D/object9F0Level29F1Level40.png,./img/object-9_120-levels_1D/object9F0Level39F1Level40.png,./img/object-9_120-levels_1D/object9F0Level19F1Level40.png,0,0,1071.0999999996275,q,triplet_task,triplets-canvas-keyboard-response,57,144354,0.0-1.0-0.56,2,,,29,39,19,-10,10,20,10,10,20,29_39_19,19,39,10,-10,-20,10,10,20,29_19_39,10_-10_-20,10_10_20,1,6,0,query_middle,39.0,ref_highdim,nan,nan,,1
perfect_responder,./img/object-9_120-levels_1D/object9F0Level59F1Level40.png,./img/object-9_120-levels_1D/object9F0Level99F1Level40.png,./img/object-9_120-levels_1D/object9F0Level119F1Level40.png,0,0,1158.2000000001863,q,triplet_task,triplets-canvas-keyboard-response,58,146861,0.0-1.0-0.57,2,True,q,59,99,119,-40,-60,-20,40,60,20,59_99_119,99,119,-40,-60,-20,40,60,20,59_99_119,-40_-60_-20,40_60_20,1,2,20,query_left,99.0,ref_lowdim,ref_lowdim,ref_left,1.0,1
perfect_responder,./img/object-9_120-levels_1D/object9F0Level19F1Level40.png,./img/object-9_120-levels_1D/object9F0Level89F1Level40.png,./img/object-9_120-levels_1D/object9F0Level119F1Level40.png,0,0,886.0,q,triplet_task,triplets-canvas-keyboard-response,59,149366,0.0-1.0-0.58,2,True,q,19,89,119,-70,-100,-30,70,100,30,19_89_119,89,119,-70,-100,-30,70,100,30,19_89_119,-70_-100_-30,70_100_30,1,1,30,query_left,89.0,ref_lowdim,ref_lowdim,ref_left,1.0,1
perfect_responder,./img/object-9_120-levels_1D/object9F0Level119F1Level40.png,./img/object-9_120-levels_1D/object9F0Level39F1Level40.png,./img/object-9_120-levels_1D/object9F0Level29F1Level40.png,0,0,1078.7000000001863,q,triplet_task,triplets-canvas-keyboard-response,60,151876,0.0-1.0-0.59,2,True,q,119,39,29,80,90,10,80,90,10,119_39_29,29,39,90,80,-10,90,80,10,119_29_39,90_80_-10,80_90_10,1,1,10,query_right,39.0,ref_highdim,ref_highdim,ref_left,1.0,1
perfect_responder,./img/object-9_120-levels_1D/object9F0Level99F1Level40.png,./img/object-9_120-levels_1D/object9F0Level39F1Level40.png,./img/object-9_120-levels_1D/object9F0Level79F1Level40.png,0,0,805.8000000007451,p,triplet_task,triplets-canvas-keyboard-response,61,154385,0.0-1.0-0.60,2,True,p,99,39,79,60,20,-40,60,20,40,99_39_79,39,79,60,20,-40,60,20,40,99_39_79,60_20_-40,20_60_40,1,1,40,query_right,79.0,ref_highdim,ref_highdim,ref_right,1.0,1
perfect_responder,./img/object-9_120-levels_1D/object9F0Level29F1Level40.png,./img/object-9_120-levels_1D/object9F0Level79F1Level40.png,./img/object-9_120-levels_1D/object9F0Level19F1Level40.png,0,0,757.3999999994412,p,triplet_task,triplets-canvas-keyboard-response,62,156892,0.0-1.0-0.61,2,True,p,29,79,19,-50,10,60,50,10,60,29_79_19,19,79,10,-50,-60,10,50,60,29_19_79,10_-50_-60,10_50_60,1,2,40,query_middle,19.0,ref_lowdim,ref_lowdim,ref_right,1.0,1
perfect_responder,./img/object-9_120-levels_1D/object9F0Level109F1Level40.png,./img/object-9_120-levels_1D/object9F0Level19F1Level40.png,./img/object-9_120-levels_1D/object9F0Level59F1Level40.png,0,0,1069.7999999998137,p,triplet_task,triplets-canvas-keyboard-response,63,159400,0.0-1.0-0.62,2,True,p,109,19,59,90,50,-40,90,50,40,109_19_59,19,59,90,50,-40,90,50,40,109_19_59,90_50_-40,50_90_40,1,1,40,query_right,59.0,ref_highdim,ref_highdim,ref_right,1.0,1
perfect_responder,./img/object-9_120-levels_1D/object9F0Level29F1Level40.png,./img/object-9_120-levels_1D/object9F0Level89F1Level40.png,./img/object-9_120-levels_1D/object9F0Level99F1Level40.png,0,0,1022.2000000001863,q,triplet_task,triplets-canvas-keyboard-response,64,161908,0.0-1.0-0.63,2,True,q,29,89,99,-60,-70,-10,60,70,10,29_89_99,89,99,-60,-70,-10,60,70,10,29_89_99,-60_-70_-10,60_70_10,1,2,10,query_left,89.0,ref_lowdim,ref_lowdim,ref_left,1.0,1
perfect_responder,./img/object-9_120-levels_1D/object9F0Level49F1Level40.png,./img/object-9_120-levels_1D/object9F0Level79F1Level40.png,./img/object-9_120-levels_1D/object9F0Level99F1Level40.png,0,0,733.9000000003725,q,triplet_task,triplets-canvas-keyboard-response,65,164416,0.0-1.0-0.64,2,True,q,49,79,99,-30,-50,-20,30,50,20,49_79_99,79,99,-30,-50,-20,30,50,20,49_79_99,-30_-50_-20,30_50_20,1,2,20,query_left,79.0,ref_lowdim,ref_lowdim,ref_left,1.0,1
perfect_responder,./img/object-9_120-levels_1D/object9F0Level99F1Level40.png,./img/object-9_120-levels_1D/object9F0Level89F1Level40.png,./img/object-9_120-levels_1D/object9F0Level109F1Level40.png,0,0,1181.3999999994412,q,triplet_task,triplets-canvas-keyboard-response,66,166923,0.0-1.0-0.65,2,,,99,89,109,10,-10,-20,10,10,20,99_89_109,89,109,10,-10,-20,10,10,20,99_89_109,10_-10_-20,10_10_20,1,7,0,query_middle,89.0,ref_lowdim,nan,nan,,1
perfect_responder,./img/object-9_120-levels_1D/object9F0Level59F1Level40.png,./img/object-9_120-levels_1D/object9F0Level39F1Level40.png,./img/object-9_120-levels_1D/object9F0Level49F1Level40.png,0,0,594.2000000001863,p,triplet_task,triplets-canvas-keyboard-response,67,169431,0.0-1.0-0.66,2,True,p,59,39,49,20,10,-10,20,10,10,59_39_49,39,49,20,10,-10,20,10,10,59_39_49,20_10_-10,10_20_10,1,1,10,query_right,49.0,ref_highdim,ref_highdim,ref_right,1.0,1
perfect_responder,./img/object-9_120-levels_1D/object9F0Level79F1Level40.png,./img/object-9_120-levels_1D/object9F0Level89F1Level40.png,./img/object-9_120-levels_1D/object9F0Level29F1Level40.png,0,0,681.0,q,triplet_task,triplets-canvas-keyboard-response,68,171939,0.0-1.0-0.67,2,True,q,79,89,29,-10,50,60,10,50,60,79_89_29,29,89,50,-10,-60,50,10,60,79_29_89,50_-10_-60,10_50_60,1,2,40,query_middle,89.0,ref_highdim,ref_highdim,ref_left,1.0,1
perfect_responder,./img/object-9_120-levels_1D/object9F0Level99F1Level40.png,./img/object-9_120-levels_1D/object9F0Level109F1Level40.png,./img/object-9_120-levels_1D/object9F0Level49F1Level40.png,0,0,648.7999999998137,q,triplet_task,triplets-canvas-keyboard-response,69,174447,0.0-1.0-0.68,2,True,q,99,109,49,-10,50,60,10,50,60,99_109_49,49,109,50,-10,-60,50,10,60,99_49_109,50_-10_-60,10_50_60,1,3,40,query_middle,109.0,ref_highdim,ref_highdim,ref_left,1.0,1
perfect_responder,./img/object-9_120-levels_1D/object9F0Level39F1Level40.png,./img/object-9_120-levels_1D/object9F0Level89F1Level40.png,./img/object-9_120-levels_1D/object9F0Level69F1Level40.png,0,0,616.1000000005588,p,triplet_task,triplets-canvas-keyboard-response,70,176954,0.0-1.0-0.69,2,True,p,39,89,69,-50,-30,20,50,30,20,39_89_69,69,89,-30,-50,-20,30,50,20,39_69_89,-30_-50_-20,30_50_20,1,3,20,query_left,69.0,ref_lowdim,ref_lowdim,ref_right,1.0,1
perfect_responder,./img/object-9_120-levels_1D/object9F0Level49F1Level40.png,./img/object-9_120-levels_1D/object9F0Level29F1Level40.png,./img/object-9_120-levels_1D/object9F0Level109F1Level40.png,0,0,806.2999999998137,q,triplet_task,triplets-canvas-keyboard-response,71,179462,0.0-1.0-0.70,2,True,q,49,29,109,20,-60,-80,20,60,80,49_29_109,29,109,20,-60,-80,20,60,80,49_29_109,20_-60_-80,20_60_80,1,1,40,query_middle,29.0,ref_lowdim,ref_lowdim,ref_left,1.0,1
perfect_responder,./img/object-9_120-levels_1D/object9F0Level99F1Level40.png,./img/object-9_120-levels_1D/object9F0Level119F1Level40.png,./img/object-9_120-levels_1D/object9F0Level109F1Level40.png,0,0,1210.4000000003725,p,triplet_task,triplets-canvas-keyboard-response,72,181969,0.0-1.0-0.71,2,True,p,99,119,109,-20,-10,10,20,10,10,99_119_109,109,119,-10,-20,-10,10,20,10,99_109_119,-10_-20_-10,10_20_10,1,2,10,query_left,109.0,ref_lowdim,ref_lowdim,ref_right,1.0,1
perfect_responder,./img/object-9_120-levels_1D/object9F0Level109F1Level40.png,./img/object-9_120-levels_1D/object9F0Level69F1Level40.png,./img/object-9_120-levels_1D/object9F0Level19F1Level40.png,0,0,983.2000000001863,q,triplet_task,triplets-canvas-keyboard-response,73,184478,0.0-1.0-0.72,2,True,q,109,69,19,40,90,50,40,90,50,109_69_19,19,69,90,40,-50,90,40,50,109_19_69,90_40_-50,40_90_50,1,1,50,query_right,69.0,ref_highdim,ref_highdim,ref_left,1.0,1
perfect_responder,./img/object-9_120-levels_1D/object9F0Level29F1Level40.png,./img/object-9_120-levels_1D/object9F0Level69F1Level40.png,./img/object-9_120-levels_1D/object9F0Level99F1Level40.png,0,0,649.9000000003725,q,triplet_task,triplets-canvas-keyboard-response,74,186985,0.0-1.0-0.73,2,True,q,29,69,99,-40,-70,-30,40,70,30,29_69_99,69,99,-40,-70,-30,40,70,30,29_69_99,-40_-70_-30,40_70_30,1,1,30,query_left,69.0,ref_lowdim,ref_lowdim,ref_left,1.0,1
perfect_responder,./img/object-9_120-levels_1D/object9F0Level99F1Level40.png,./img/object-9_120-levels_1D/object9F0Level39F1Level40.png,./img/object-9_120-levels_1D/object9F0Level49F1Level40.png,0,0,662.5999999996275,p,triplet_task,triplets-canvas-keyboard-response,75,189493,0.0-1.0-0.74,2,True,p,99,39,49,60,50,-10,60,50,10,99_39_49,39,49,60,50,-10,60,50,10,99_39_49,60_50_-10,50_60_10,1,2,10,query_right,49.0,ref_highdim,ref_highdim,ref_right,1.0,1
perfect_responder,./img/object-9_120-levels_1D/object9F0Level29F1Level40.png,./img/object-9_120-levels_1D/object9F0Level89F1Level40.png,./img/object-9_120-levels_1D/object9F0Level119F1Level40.png,0,0,795.1000000005588,q,triplet_task,triplets-canvas-keyboard-response,76,192001,0.0-1.0-0.75,2,True,q,29,89,119,-60,-90,-30,60,90,30,29_89_119,89,119,-60,-90,-30,60,90,30,29_89_119,-60_-90_-30,60_90_30,1,1,30,query_left,89.0,ref_lowdim,ref_lowdim,ref_left,1.0,1
perfect_responder,./img/object-9_120-levels_1D/object9F0Level49F1Level40.png,./img/object-9_120-levels_1D/object9F0Level89F1Level40.png,./img/object-9_120-levels_1D/object9F0Level59F1Level40.png,0,0,701.6999999992549,p,triplet_task,triplets-canvas-keyboard-response,77,194509,0.0-1.0-0.76,2,True,p,49,89,59,-40,-10,30,40,10,30,49_89_59,59,89,-10,-40,-30,10,40,30,49_59_89,-10_-40_-30,10_40_30,1,2,30,query_left,59.0,ref_lowdim,ref_lowdim,ref_right,1.0,1
perfect_responder,./img/object-9_120-levels_1D/object9F0Level109F1Level40.png,./img/object-9_120-levels_1D/object9F0Level119F1Level40.png,./img/object-9_120-levels_1D/object9F0Level79F1Level40.png,0,0,1059.5,q,triplet_task,triplets-canvas-keyboard-response,78,197016,0.0-1.0-0.77,2,True,q,109,119,79,-10,30,40,10,30,40,109_119_79,79,119,30,-10,-40,30,10,40,109_79_119,30_-10_-40,10_30_40,1,3,20,query_middle,119.0,ref_highdim,ref_highdim,ref_left,1.0,1
perfect_responder,./img/object-9_120-levels_1D/object9F0Level69F1Level40.png,./img/object-9_120-levels_1D/object9F0Level59F1Level40.png,./img/object-9_120-levels_1D/object9F0Level89F1Level40.png,0,0,1551.8999999994412,q,triplet_task,triplets-canvas-keyboard-response,79,199524,0.0-1.0-0.78,2,True,q,69,59,89,10,-20,-30,10,20,30,69_59_89,59,89,10,-20,-30,10,20,30,69_59_89,10_-20_-30,10_20_30,1,5,10,query_middle,59.0,ref_lowdim,ref_lowdim,ref_left,1.0,1
perfect_responder,./img/object-9_120-levels_1D/object9F0Level39F1Level40.png,./img/object-9_120-levels_1D/object9F0Level19F1Level40.png,./img/object-9_120-levels_1D/object9F0Level119F1Level40.png,0,0,784.2999999998137,q,triplet_task,triplets-canvas-keyboard-response,80,202032,0.0-1.0-0.79,2,True,q,39,19,119,20,-80,-100,20,80,100,39_19_119,19,119,20,-80,-100,20,80,100,39_19_119,20_-80_-100,20_80_100,1,1,60,query_middle,19.0,ref_lowdim,ref_lowdim,ref_left,1.0,1
perfect_responder,./img/object-9_120-levels_1D/object9F0Level119F1Level40.png,./img/object-9_120-levels_1D/object9F0Level29F1Level40.png,./img/object-9_120-levels_1D/object9F0Level109F1Level40.png,0,0,780.7999999998137,p,triplet_task,triplets-canvas-keyboard-response,81,204540,0.0-1.0-0.80,2,True,p,119,29,109,90,10,-80,90,10,80,119_29_109,29,109,90,10,-80,90,10,80,119_29_109,90_10_-80,10_90_80,1,1,80,query_right,109.0,ref_highdim,ref_highdim,ref_right,1.0,1
perfect_responder,./img/object-9_120-levels_1D/object9F0Level109F1Level40.png,./img/object-9_120-levels_1D/object9F0Level89F1Level40.png,./img/object-9_120-levels_1D/object9F0Level119F1Level40.png,0,0,1018.5,p,triplet_task,triplets-canvas-keyboard-response,82,207047,0.0-1.0-0.81,2,True,p,109,89,119,20,-10,-30,20,10,30,109_89_119,89,119,20,-10,-30,20,10,30,109_89_119,20_-10_-30,10_20_30,1,1,10,query_middle,119.0,ref_highdim,ref_highdim,ref_right,1.0,1
perfect_responder,./img/object-9_120-levels_1D/object9F0Level39F1Level40.png,./img/object-9_120-levels_1D/object9F0Level119F1Level40.png,./img/object-9_120-levels_1D/object9F0Level59F1Level40.png,0,0,967.5999999996275,p,triplet_task,triplets-canvas-keyboard-response,83,209561,0.0-1.0-0.82,2,True,p,39,119,59,-80,-20,60,80,20,60,39_119_59,59,119,-20,-80,-60,20,80,60,39_59_119,-20_-80_-60,20_80_60,1,2,60,query_left,59.0,ref_lowdim,ref_lowdim,ref_right,1.0,1
perfect_responder,./img/object-9_120-levels_1D/object9F0Level119F1Level40.png,./img/object-9_120-levels_1D/object9F0Level89F1Level40.png,./img/object-9_120-levels_1D/object9F0Level19F1Level40.png,0,0,747.2999999998137,q,triplet_task,triplets-canvas-keyboard-response,1,3861,0.0-1.0-0.0,3,True,q,119,89,19,30,100,70,30,100,70,119_89_19,19,89,100,30,-70,100,30,70,119_19_89,100_30_-70,30_100_70,1,1,70,query_right,89.0,ref_highdim,ref_highdim,ref_left,1.0,1
perfect_responder,./img/object-9_120-levels_1D/object9F0Level99F1Level40.png,./img/object-9_120-levels_1D/object9F0Level49F1Level40.png,./img/object-9_120-levels_1D/object9F0Level79F1Level40.png,0,0,685.9000000003725,p,triplet_task,triplets-canvas-keyboard-response,2,6369,0.0-1.0-0.1,3,True,p,99,49,79,50,20,-30,50,20,30,99_49_79,49,79,50,20,-30,50,20,30,99_49_79,50_20_-30,20_50_30,1,3,30,query_right,79.0,ref_highdim,ref_highdim,ref_right,1.0,1
perfect_responder,./img/object-9_120-levels_1D/object9F0Level39F1Level40.png,./img/object-9_120-levels_1D/object9F0Level89F1Level40.png,./img/object-9_120-levels_1D/object9F0Level99F1Level40.png,0,0,1253.4000000003725,q,triplet_task,triplets-canvas-keyboard-response,3,8872,0.0-1.0-0.2,3,True,q,39,89,99,-50,-60,-10,50,60,10,39_89_99,89,99,-50,-60,-10,50,60,10,39_89_99,-50_-60_-10,50_60_10,1,2,10,query_left,89.0,ref_lowdim,ref_lowdim,ref_left,1.0,1
perfect_responder,./img/object-9_120-levels_1D/object9F0Level89F1Level40.png,./img/object-9_120-levels_1D/object9F0Level59F1Level40.png,./img/object-9_120-levels_1D/object9F0Level19F1Level40.png,0,0,970.1999999992549,q,triplet_task,triplets-canvas-keyboard-response,4,11378,0.0-1.0-0.3,3,True,q,89,59,19,30,70,40,30,70,40,89_59_19,19,59,70,30,-40,70,30,40,89_19_59,70_30_-40,30_70_40,1,1,40,query_right,59.0,ref_highdim,ref_highdim,ref_left,1.0,1
perfect_responder,./img/object-9_120-levels_1D/object9F0Level59F1Level40.png,./img/object-9_120-levels_1D/object9F0Level69F1Level40.png,./img/object-9_120-levels_1D/object9F0Level79F1Level40.png,0,0,1284.0,q,triplet_task,triplets-canvas-keyboard-response,5,13886,0.0-1.0-0.4,3,True,q,59,69,79,-10,-20,-10,10,20,10,59_69_79,69,79,-10,-20,-10,10,20,10,59_69_79,-10_-20_-10,10_20_10,1,3,10,query_left,69.0,ref_lowdim,ref_lowdim,ref_left,1.0,1
perfect_responder,./img/object-9_120-levels_1D/object9F0Level39F1Level40.png,./img/object-9_120-levels_1D/object9F0Level109F1Level40.png,./img/object-9_120-levels_1D/object9F0Level19F1Level40.png,0,0,801.5999999996275,p,triplet_task,triplets-canvas-keyboard-response,6,16394,0.0-1.0-0.5,3,True,p,39,109,19,-70,20,90,70,20,90,39_109_19,19,109,20,-70,-90,20,70,90,39_19_109,20_-70_-90,20_70_90,1,2,50,query_middle,19.0,ref_lowdim,ref_lowdim,ref_right,1.0,1
perfect_responder,./img/object-9_120-levels_1D/object9F0Level89F1Level40.png,./img/object-9_120-levels_1D/object9F0Level49F1Level40.png,./img/object-9_120-levels_1D/object9F0Level39F1Level40.png,0,0,828.5,q,triplet_task,triplets-canvas-keyboard-response,7,18902,0.0-1.0-0.6,3,True,q,89,49,39,40,50,10,40,50,10,89_49_39,39,49,50,40,-10,50,40,10,89_39_49,50_40_-10,40_50_10,1,3,10,query_right,49.0,ref_highdim,ref_highdim,ref_left,1.0,1
perfect_responder,./img/object-9_120-levels_1D/object9F0Level29F1Level40.png,./img/object-9_120-levels_1D/object9F0Level39F1Level40.png,./img/object-9_120-levels_1D/object9F0Level49F1Level40.png,0,0,886.2000000001863,q,triplet_task,triplets-canvas-keyboard-response,8,21409,0.0-1.0-0.7,3,True,q,29,39,49,-10,-20,-10,10,20,10,29_39_49,39,49,-10,-20,-10,10,20,10,29_39_49,-10_-20_-10,10_20_10,1,4,10,query_left,39.0,ref_lowdim,ref_lowdim,ref_left,1.0,1
perfect_responder,./img/object-9_120-levels_1D/object9F0Level99F1Level40.png,./img/object-9_120-levels_1D/object9F0Level119F1Level40.png,./img/object-9_120-levels_1D/object9F0Level69F1Level40.png,0,0,1468.8999999994412,q,triplet_task,triplets-canvas-keyboard-response,9,23917,0.0-1.0-0.8,3,True,q,99,119,69,-20,30,50,20,30,50,99_119_69,69,119,30,-20,-50,30,20,50,99_69_119,30_-20_-50,20_30_50,1,3,10,query_middle,119.0,ref_highdim,ref_highdim,ref_left,1.0,1
perfect_responder,./img/object-9_120-levels_1D/object9F0Level109F1Level40.png,./img/object-9_120-levels_1D/object9F0Level59F1Level40.png,./img/object-9_120-levels_1D/object9F0Level99F1Level40.png,0,0,700.9000000003725,p,triplet_task,triplets-canvas-keyboard-response,10,26422,0.0-1.0-0.9,3,True,p,109,59,99,50,10,-40,50,10,40,109_59_99,59,99,50,10,-40,50,10,40,109_59_99,50_10_-40,10_50_40,1,3,40,query_right,99.0,ref_highdim,ref_highdim,ref_right,1.0,1
perfect_responder,./img/object-9_120-levels_1D/object9F0Level89F1Level40.png,./img/object-9_120-levels_1D/object9F0Level39F1Level40.png,./img/object-9_120-levels_1D/object9F0Level69F1Level40.png,0,0,640.5999999996275,p,triplet_task,triplets-canvas-keyboard-response,11,28929,0.0-1.0-0.10,3,True,p,89,39,69,50,20,-30,50,20,30,89_39_69,39,69,50,20,-30,50,20,30,89_39_69,50_20_-30,20_50_30,1,4,30,query_right,69.0,ref_highdim,ref_highdim,ref_right,1.0,1
perfect_responder,./img/object-9_120-levels_1D/object9F0Level69F1Level40.png,./img/object-9_120-levels_1D/object9F0Level79F1Level40.png,./img/object-9_120-levels_1D/object9F0Level39F1Level40.png,0,0,789.5,q,triplet_task,triplets-canvas-keyboard-response,12,31436,0.0-1.0-0.11,3,True,q,69,79,39,-10,30,40,10,30,40,69_79_39,39,79,30,-10,-40,30,10,40,69_39_79,30_-10_-40,10_30_40,1,4,20,query_middle,79.0,ref_highdim,ref_highdim,ref_left,1.0,1
perfect_responder,./img/object-9_120-levels_1D/object9F0Level49F1Level40.png,./img/object-9_120-levels_1D/object9F0Level109F1Level40.png,./img/object-9_120-levels_1D/object9F0Level39F1Level40.png,0,0,667.5999999996275,p,triplet_task,triplets-canvas-keyboard-response,13,33943,0.0-1.0-0.12,3,True,p,49,109,39,-60,10,70,60,10,70,49_109_39,39,109,10,-60,-70,10,60,70,49_39_109,10_-60_-70,10_60_70,1,3,50,query_middle,39.0,ref_lowdim,ref_lowdim,ref_right,1.0,1
perfect_responder,./img/object-9_120-levels_1D/object9F0Level59F1Level40.png,./img/object-9_120-levels_1D/object9F0Level119F1Level40.png,./img/object-9_120-levels_1D/object9F0Level29F1Level40.png,0,0,1279.5999999996275,p,triplet_task,triplets-canvas-keyboard-response,14,36451,0.0-1.0-0.13,3,True,p,59,119,29,-60,30,90,60,30,90,59_119_29,29,119,30,-60,-90,30,60,90,59_29_119,30_-60_-90,30_60_90,1,1,30,query_middle,29.0,ref_lowdim,ref_lowdim,ref_right,1.0,1
perfect_responder,./img/object-9_120-levels_1D/object9F0Level79F1Level40.png,./img/object-9_120-levels_1D/object9F0Level89F1Level40.png,./img/object-9_120-levels_1D/object9F0Level119F1Level40.png,0,0,825.7000000001863,q,triplet_task,triplets-canvas-keyboard-response,15,38959,0.0-1.0-0.14,3,True,q,79,89,119,-10,-40,-30,10,40,30,79_89_119,89,119,-10,-40,-30,10,40,30,79_89_119,-10_-40_-30,10_40_30,1,3,30,query_left,89.0,ref_lowdim,ref_lowdim,ref_left,1.0,1
perfect_responder,./img/object-9_120-levels_1D/object9F0Level99F1Level40.png,./img/object-9_120-levels_1D/object9F0Level19F1Level40.png,./img/object-9_120-levels_1D/object9F0Level49F1Level40.png,0,0,1289.5,p,triplet_task,triplets-canvas-keyboard-response,16,41467,0.0-1.0-0.15,3,True,p,99,19,49,80,50,-30,80,50,30,99_19_49,19,49,80,50,-30,80,50,30,99_19_49,80_50_-30,50_80_30,1,1,30,query_right,49.0,ref_highdim,ref_highdim,ref_right,1.0,1
perfect_responder,./img/object-9_120-levels_1D/object9F0Level79F1Level40.png,./img/object-9_120-levels_1D/object9F0Level19F1Level40.png,./img/object-9_120-levels_1D/object9F0Level119F1Level40.png,0,0,1001.7999999998137,p,triplet_task,triplets-canvas-keyboard-response,17,43974,0.0-1.0-0.16,3,True,p,79,19,119,60,-40,-100,60,40,100,79_19_119,19,119,60,-40,-100,60,40,100,79_19_119,60_-40_-100,40_60_100,1,1,20,query_middle,119.0,ref_highdim,ref_highdim,ref_right,1.0,1
perfect_responder,./img/object-9_120-levels_1D/object9F0Level39F1Level40.png,./img/object-9_120-levels_1D/object9F0Level79F1Level40.png,./img/object-9_120-levels_1D/object9F0Level29F1Level40.png,0,0,1074.0,p,triplet_task,triplets-canvas-keyboard-response,18,46482,0.0-1.0-0.17,3,True,p,39,79,29,-40,10,50,40,10,50,39_79_29,29,79,10,-40,-50,10,40,50,39_29_79,10_-40_-50,10_40_50,1,2,30,query_middle,29.0,ref_lowdim,ref_lowdim,ref_right,1.0,1
perfect_responder,./img/object-9_120-levels_1D/object9F0Level89F1Level40.png,./img/object-9_120-levels_1D/object9F0Level69F1Level40.png,./img/object-9_120-levels_1D/object9F0Level49F1Level40.png,0,0,891.1999999992549,q,triplet_task,triplets-canvas-keyboard-response,19,48990,0.0-1.0-0.18,3,True,q,89,69,49,20,40,20,20,40,20,89_69_49,49,69,40,20,-20,40,20,20,89_49_69,40_20_-20,20_40_20,1,3,20,query_right,69.0,ref_highdim,ref_highdim,ref_left,1.0,1
perfect_responder,./img/object-9_120-levels_1D/object9F0Level69F1Level40.png,./img/object-9_120-levels_1D/object9F0Level79F1Level40.png,./img/object-9_120-levels_1D/object9F0Level49F1Level40.png,0,0,738.4000000003725,q,triplet_task,triplets-canvas-keyboard-response,20,51498,0.0-1.0-0.19,3,True,q,69,79,49,-10,20,30,10,20,30,69_79_49,49,79,20,-10,-30,20,10,30,69_49_79,20_-10_-30,10_20_30,1,2,10,query_middle,79.0,ref_highdim,ref_highdim,ref_left,1.0,1
perfect_responder,./img/object-9_120-levels_1D/object9F0Level79F1Level40.png,./img/object-9_120-levels_1D/object9F0Level49F1Level40.png,./img/object-9_120-levels_1D/object9F0Level89F1Level40.png,0,0,1140.5999999996275,p,triplet_task,triplets-canvas-keyboard-response,21,54001,0.0-1.0-0.20,3,True,p,79,49,89,30,-10,-40,30,10,40,79_49_89,49,89,30,-10,-40,30,10,40,79_49_89,30_-10_-40,10_30_40,1,5,20,query_middle,89.0,ref_highdim,ref_highdim,ref_right,1.0,1
perfect_responder,./img/object-9_120-levels_1D/object9F0Level59F1Level40.png,./img/object-9_120-levels_1D/object9F0Level29F1Level40.png,./img/object-9_120-levels_1D/object9F0Level109F1Level40.png,0,0,798.0,q,triplet_task,triplets-canvas-keyboard-response,22,56507,0.0-1.0-0.21,3,True,q,59,29,109,30,-50,-80,30,50,80,59_29_109,29,109,30,-50,-80,30,50,80,59_29_109,30_-50_-80,30_50_80,1,2,20,query_middle,29.0,ref_lowdim,ref_lowdim,ref_left,1.0,1
perfect_responder,./img/object-9_120-levels_1D/object9F0Level69F1Level40.png,./img/object-9_120-levels_1D/object9F0Level109F1Level40.png,./img/object-9_120-levels_1D/object9F0Level29F1Level40.png,0,0,1277.0,q,triplet_task,triplets-canvas-keyboard-response,23,59015,0.0-1.0-0.22,3,,,69,109,29,-40,40,80,40,40,80,69_109_29,29,109,40,-40,-80,40,40,80,69_29_109,40_-40_-80,40_40_80,1,2,0,query_middle,109.0,ref_highdim,nan,nan,,1
perfect_responder,./img/object-9_120-levels_1D/object9F0Level39F1Level40.png,./img/object-9_120-levels_1D/object9F0Level89F1Level40.png,./img/object-9_120-levels_1D/object9F0Level19F1Level40.png,0,0,823.2000000001863,p,triplet_task,triplets-canvas-keyboard-response,24,61522,0.0-1.0-0.23,3,True,p,39,89,19,-50,20,70,50,20,70,39_89_19,19,89,20,-50,-70,20,50,70,39_19_89,20_-50_-70,20_50_70,1,1,30,query_middle,19.0,ref_lowdim,ref_lowdim,ref_right,1.0,1
perfect_responder,./img/object-9_120-levels_1D/object9F0Level59F1Level40.png,./img/object-9_120-levels_1D/object9F0Level79F1Level40.png,./img/object-9_120-levels_1D/object9F0Level89F1Level40.png,0,0,1286.199999999255,q,triplet_task,triplets-canvas-keyboard-response,25,64030,0.0-1.0-0.24,3,True,q,59,79,89,-20,-30,-10,20,30,10,59_79_89,79,89,-20,-30,-10,20,30,10,59_79_89,-20_-30_-10,20_30_10,1,4,10,query_left,79.0,ref_lowdim,ref_lowdim,ref_left,1.0,1
perfect_responder,./img/object-9_120-levels_1D/object9F0Level109F1Level40.png,./img/object-9_120-levels_1D/object9F0Level49F1Level40.png,./img/object-9_120-levels_1D/object9F0Level19F1Level40.png,0,0,818.9000000003725,q,triplet_task,triplets-canvas-keyboard-response,26,66538,0.0-1.0-0.25,3,True,q,109,49,19,60,90,30,60,90,30,109_49_19,19,49,90,60,-30,90,60,30,109_19_49,90_60_-30,60_90_30,1,1,30,query_right,49.0,ref_highdim,ref_highdim,ref_left,1.0,1
perfect_responder,./img/object-9_120-levels_1D/object9F0Level49F1Level40.png,./img/object-9_120-levels_1D/object9F0Level109F1Level40.png,./img/object-9_120-levels_1D/object9F0Level99F1Level40.png,0,0,1338.5,p,triplet_task,triplets-canvas-keyboard-response,27,69052,0.0-1.0-0.26,3,True,p,49,109,99,-60,-50,10,60,50,10,49_109_99,99,109,-50,-60,-10,50,60,10,49_99_109,-50_-60_-10,50_60_10,1,3,10,query_left,99.0,ref_lowdim,ref_lowdim,ref_right,1.0,1
perfect_responder,./img/object-9_120-levels_1D/object9F0Level59F1Level40.png,./img/object-9_120-levels_1D/object9F0Level99F1Level40.png,./img/object-9_120-levels_1D/object9F0Level69F1Level40.png,0,0,747.0999999996275,p,triplet_task,triplets-canvas-keyboard-response,28,71560,0.0-1.0-0.27,3,True,p,59,99,69,-40,-10,30,40,10,30,59_99_69,69,99,-10,-40,-30,10,40,30,59_69_99,-10_-40_-30,10_40_30,1,4,30,query_left,69.0,ref_lowdim,ref_lowdim,ref_right,1.0,1
perfect_responder,./img/object-9_120-levels_1D/object9F0Level69F1Level40.png,./img/object-9_120-levels_1D/object9F0Level59F1Level40.png,./img/object-9_120-levels_1D/object9F0Level79F1Level40.png,0,0,804.2000000001863,q,triplet_task,triplets-canvas-keyboard-response,29,74067,0.0-1.0-0.28,3,,,69,59,79,10,-10,-20,10,10,20,69_59_79,59,79,10,-10,-20,10,10,20,69_59_79,10_-10_-20,10_10_20,1,8,0,query_middle,59.0,ref_lowdim,nan,nan,,1
perfect_responder,./img/object-9_120-levels_1D/object9F0Level99F1Level40.png,./img/object-9_120-levels_1D/object9F0Level89F1Level40.png,./img/object-9_120-levels_1D/object9F0Level19F1Level40.png,0,0,906.6999999992549,q,triplet_task,triplets-canvas-keyboard-response,30,76575,0.0-1.0-0.29,3,True,q,99,89,19,10,80,70,10,80,70,99_89_19,19,89,80,10,-70,80,10,70,99_19_89,80_10_-70,10_80_70,1,2,70,query_right,89.0,ref_highdim,ref_highdim,ref_left,1.0,1
perfect_responder,./img/object-9_120-levels_1D/object9F0Level119F1Level40.png,./img/object-9_120-levels_1D/object9F0Level49F1Level40.png,./img/object-9_120-levels_1D/object9F0Level29F1Level40.png,0,0,1128.8999999994412,q,triplet_task,triplets-canvas-keyboard-response,31,79083,0.0-1.0-0.30,3,True,q,119,49,29,70,90,20,70,90,20,119_49_29,29,49,90,70,-20,90,70,20,119_29_49,90_70_-20,70_90_20,1,2,20,query_right,49.0,ref_highdim,ref_highdim,ref_left,1.0,1
perfect_responder,./img/object-9_120-levels_1D/object9F0Level29F1Level40.png,./img/object-9_120-levels_1D/object9F0Level119F1Level40.png,./img/object-9_120-levels_1D/object9F0Level59F1Level40.png,0,0,826.0999999996275,p,triplet_task,triplets-canvas-keyboard-response,32,81590,0.0-1.0-0.31,3,True,p,29,119,59,-90,-30,60,90,30,60,29_119_59,59,119,-30,-90,-60,30,90,60,29_59_119,-30_-90_-60,30_90_60,1,2,60,query_left,59.0,ref_lowdim,ref_lowdim,ref_right,1.0,1
perfect_responder,./img/object-9_120-levels_1D/object9F0Level109F1Level40.png,./img/object-9_120-levels_1D/object9F0Level89F1Level40.png,./img/object-9_120-levels_1D/object9F0Level59F1Level40.png,0,0,568.7999999998137,q,triplet_task,triplets-canvas-keyboard-response,33,84098,0.0-1.0-0.32,3,True,q,109,89,59,20,50,30,20,50,30,109_89_59,59,89,50,20,-30,50,20,30,109_59_89,50_20_-30,20_50_30,1,5,30,query_right,89.0,ref_highdim,ref_highdim,ref_left,1.0,1
perfect_responder,./img/object-9_120-levels_1D/object9F0Level29F1Level40.png,./img/object-9_120-levels_1D/object9F0Level39F1Level40.png,./img/object-9_120-levels_1D/object9F0Level119F1Level40.png,0,0,610.7000000001863,q,triplet_task,triplets-canvas-keyboard-response,34,86606,0.0-1.0-0.33,3,True,q,29,39,119,-10,-90,-80,10,90,80,29_39_119,39,119,-10,-90,-80,10,90,80,29_39_119,-10_-90_-80,10_90_80,1,2,80,query_left,39.0,ref_lowdim,ref_lowdim,ref_left,1.0,1
perfect_responder,./img/object-9_120-levels_1D/object9F0Level119F1Level40.png,./img/object-9_120-levels_1D/object9F0Level49F1Level40.png,./img/object-9_120-levels_1D/object9F0Level79F1Level40.png,0,0,1283.0999999996275,p,triplet_task,triplets-canvas-keyboard-response,35,89112,0.0-1.0-0.34,3,True,p,119,49,79,70,40,-30,70,40,30,119_49_79,49,79,70,40,-30,70,40,30,119_49_79,70_40_-30,40_70_30,1,3,30,query_right,79.0,ref_highdim,ref_highdim,ref_right,1.0,1
perfect_responder,./img/object-9_120-levels_1D/object9F0Level59F1Level40.png,./img/object-9_120-levels_1D/object9F0Level89F1Level40.png,./img/object-9_120-levels_1D/object9F0Level19F1Level40.png,0,0,966.9000000003725,q,triplet_task,triplets-canvas-keyboard-response,36,91622,0.0-1.0-0.35,3,True,q,59,89,19,-30,40,70,30,40,70,59_89_19,19,89,40,-30,-70,40,30,70,59_19_89,40_-30_-70,30_40_70,1,2,10,query_middle,89.0,ref_highdim,ref_highdim,ref_left,1.0,1
perfect_responder,./img/object-9_120-levels_1D/object9F0Level99F1Level40.png,./img/object-9_120-levels_1D/object9F0Level89F1Level40.png,./img/object-9_120-levels_1D/object9F0Level39F1Level40.png,0,0,662.7999999998137,q,triplet_task,triplets-canvas-keyboard-response,37,94129,0.0-1.0-0.36,3,True,q,99,89,39,10,60,50,10,60,50,99_89_39,39,89,60,10,-50,60,10,50,99_39_89,60_10_-50,10_60_50,1,2,50,query_right,89.0,ref_highdim,ref_highdim,ref_left,1.0,1
perfect_responder,./img/object-9_120-levels_1D/object9F0Level19F1Level40.png,./img/object-9_120-levels_1D/object9F0Level119F1Level40.png,./img/object-9_120-levels_1D/object9F0Level29F1Level40.png,0,0,615.1999999992549,p,triplet_task,triplets-canvas-keyboard-response,38,96637,0.0-1.0-0.37,3,True,p,19,119,29,-100,-10,90,100,10,90,19_119_29,29,119,-10,-100,-90,10,100,90,19_29_119,-10_-100_-90,10_100_90,1,1,90,query_left,29.0,ref_lowdim,ref_lowdim,ref_right,1.0,1
perfect_responder,./img/object-9_120-levels_1D/object9F0Level89F1Level40.png,./img/object-9_120-levels_1D/object9F0Level19F1Level40.png,./img/object-9_120-levels_1D/object9F0Level79F1Level40.png,0,0,655.2999999998137,p,triplet_task,triplets-canvas-keyboard-response,39,99145,0.0-1.0-0.38,3,True,p,89,19,79,70,10,-60,70,10,60,89_19_79,19,79,70,10,-60,70,10,60,89_19_79,70_10_-60,10_70_60,1,3,60,query_right,79.0,ref_highdim,ref_highdim,ref_right,1.0,1
perfect_responder,./img/object-9_120-levels_1D/object9F0Level59F1Level40.png,./img/object-9_120-levels_1D/object9F0Level29F1Level40.png,./img/object-9_120-levels_1D/object9F0Level39F1Level40.png,0,0,939.8000000007451,p,triplet_task,triplets-canvas-keyboard-response,40,101653,0.0-1.0-0.39,3,True,p,59,29,39,30,20,-10,30,20,10,59_29_39,29,39,30,20,-10,30,20,10,59_29_39,30_20_-10,20_30_10,1,3,10,query_right,39.0,ref_highdim,ref_highdim,ref_right,1.0,1
perfect_responder,./img/object-9_120-levels_1D/object9F0Level69F1Level40.png,./img/object-9_120-levels_1D/object9F0Level79F1Level40.png,./img/object-9_120-levels_1D/object9F0Level109F1Level40.png,0,0,846.9000000003725,q,triplet_task,triplets-canvas-keyboard-response,41,104160,0.0-1.0-0.40,3,True,q,69,79,109,-10,-40,-30,10,40,30,69_79_109,79,109,-10,-40,-30,10,40,30,69_79_109,-10_-40_-30,10_40_30,1,5,30,query_left,79.0,ref_lowdim,ref_lowdim,ref_left,1.0,1
perfect_responder,./img/object-9_120-levels_1D/object9F0Level109F1Level40.png,./img/object-9_120-levels_1D/object9F0Level79F1Level40.png,./img/object-9_120-levels_1D/object9F0Level69F1Level40.png,0,0,1159.3999999994412,q,triplet_task,triplets-canvas-keyboard-response,42,106668,0.0-1.0-0.41,3,True,q,109,79,69,30,40,10,30,40,10,109_79_69,69,79,40,30,-10,40,30,10,109_69_79,40_30_-10,30_40_10,1,1,10,query_right,79.0,ref_highdim,ref_highdim,ref_left,1.0,1
perfect_responder,./img/object-9_120-levels_1D/object9F0Level99F1Level40.png,./img/object-9_120-levels_1D/object9F0Level119F1Level40.png,./img/object-9_120-levels_1D/object9F0Level79F1Level40.png,0,0,1141.2999999998137,q,triplet_task,triplets-canvas-keyboard-response,43,109176,0.0-1.0-0.42,3,,,99,119,79,-20,20,40,20,20,40,99_119_79,79,119,20,-20,-40,20,20,40,99_79_119,20_-20_-40,20_20_40,1,3,0,query_middle,119.0,ref_highdim,nan,nan,,1
