prolific_id,query_stimulus,ref_left_stimulus,ref_right_stimulus,ref_left_y_offset,ref_right_y_offset,rt,response,trial_stage,trial_type,trial_index,time_elapsed,internal_node_id,session,correct,correct_response,query_item,ref_left,ref_right,dist_query_ref_left,dist_query_ref_right,dist_ref_left_ref_right,abs_dist_query_ref_left,abs_dist_query_ref_right,abs_dist_ref_left_ref_right,triplet_left_right_name,ref_lowdim,ref_highdim,dist_query_ref_lowdim,dist_query_ref_highdim,dist_ref_lowdim_ref_highdim,dist_abs_query_ref_lowdim,dist_abs_query_ref_highdim,dist_abs_ref_lowdim_ref_highdim,triplet_unique_name,template_distances,template_abs_distances,triplet_rep,template_distances_rep,triplet_easiness,query_position,chosen_ref_value,chosen_ref,correct_ref_lowdim_highdim,correct_ref_left_right,correct_numeric,qc_pass
sub001,./img/object-9_120-levels_1D/object9F0Level24F1Level40.png,./img/object-9_120-levels_1D/object9F0Level34F1Level40.png,./img/object-9_120-levels_1D/object9F0Level74F1Level40.png,0,0,2243.900000002235,q,practice,triplets-canvas-keyboard-response,1.0,7232.0,0.0-1.0-0.0,1.0,True,q,24,34,74,-10,-50,-40,10,50,40,24_34_74,34,74,-10,-50,-40,10,50,40,24_34_74,-10_-50_-40,10_50_40,1,1,40,query_left,34.0,ref_lowdim,ref_lowdim,ref_left,1.0,1
sub001,./img/object-9_120-levels_1D/object9F0Level114F1Level40.png,./img/object-9_120-levels_1D/object9F0Level84F1Level40.png,./img/object-9_120-levels_1D/object9F0Level104F1Level40.png,0,0,1622.699999999255,p,practice,triplets-canvas-keyboard-response,2.0,9739.0,0.0-1.0-0.1,1.0,True,p,114,84,104,30,10,-20,30,10,20,114_84_104,84,104,30,10,-20,30,10,20,114_84_104,30_10_-20,10_30_20,1,1,20,query_right,104.0,ref_highdim,ref_highdim,ref_right,1.0,1
sub001,./img/object-9_120-levels_1D/object9F0Level64F1Level40.png,./img/object-9_120-levels_1D/object9F0Level24F1Level40.png,./img/object-9_120-levels_1D/object9F0Level74F1Level40.png,0,0,1293.1000000014901,p,practice,triplets-canvas-keyboard-response,3.0,12245.0,0.0-1.0-0.2,1.0,True,p,64,24,74,40,-10,-50,40,10,50,64_24_74,24,74,40,-10,-50,40,10,50,64_24_74,40_-10_-50,10_40_50,1,1,30,query_middle,74.0,ref_highdim,ref_highdim,ref_right,1.0,1
sub001,./img/object-9_120-levels_1D/object9F0Level44F1Level40.png,./img/object-9_120-levels_1D/object9F0Level24F1Level40.png,./img/object-9_120-levels_1D/object9F0Level104F1Level40.png,0,0,1153.300000000745,q,practice,triplets-canvas-keyboard-response,4.0,14751.0,0.0-1.0-0.3,1.0,True,q,44,24,104,20,-60,-80,20,60,80,44_24_104,24,104,20,-60,-80,20,60,80,44_24_104,20_-60_-80,20_60_80,1,1,40,query_middle,24.0,ref_lowdim,ref_lowdim,ref_left,1.0,1
sub001,./img/object-9_120-levels_1D/object9F0Level74F1Level40.png,./img/object-9_120-levels_1D/object9F0Level84F1Level40.png,./img/object-9_120-levels_1D/object9F0Level24F1Level40.png,0,0,968.7999999970198,q,practice,triplets-canvas-keyboard-response,5.0,17262.0,0.0-1.0-0.4,1.0,True,q,74,84,24,-10,50,60,10,50,60,74_84_24,24,84,50,-10,-60,50,10,60,74_24_84,50_-10_-60,10_50_60,1,1,40,query_middle,84.0,ref_highdim,ref_highdim,ref_left,1.0,1
sub001,./img/object-9_120-levels_1D/object9F0Level94F1Level40.png,./img/object-9_120-levels_1D/object9F0Level84F1Level40.png,./img/object-9_120-levels_1D/object9F0Level104F1Level40.png,0,0,1456.0,q,practice,triplets-canvas-keyboard-response,6.0,19768.0,0.0-1.0-0.5,1.0,,,94,84,104,10,-10,-20,10,10,20,94_84_104,84,104,10,-10,-20,10,10,20,94_84_104,10_-10_-20,10_10_20,1,1,0,query_middle,84.0,ref_lowdim,nan,nan,,1
sub001,./img/object-9_120-levels_1D/object9F0Level54F1Level40.png,./img/object-9_120-levels_1D/object9F0Level44F1Level40.png,./img/object-9_120-levels_1D/object9F0Level94F1Level40.png,0,0,1048.6000000014901,q,practice,triplets-canvas-keyboard-response,7.0,22278.0,0.0-1.0-0.6,1.0,True,q,54,44,94,10,-40,-50,10,40,50,54_44_94,44,94,10,-40,-50,10,40,50,54_44_94,10_-40_-50,10_40_50,1,1,30,query_middle,44.0,ref_lowdim,ref_lowdim,ref_left,1.0,1
sub001,./img/object-9_120-levels_1D/object9F0Level84F1Level40.png,./img/object-9_120-levels_1D/object9F0Level104F1Level40.png,./img/object-9_120-levels_1D/object9F0Level44F1Level40.png,0,0,904.6000000014901,q,practice,triplets-canvas-keyboard-response,8.0,24785.0,0.0-1.0-0.7,1.0,True,q,84,104,44,-20,40,60,20,40,60,84_104_44,44,104,40,-20,-60,40,20,60,84_44_104,40_-20_-60,20_40_60,1,1,20,query_middle,104.0,ref_highdim,ref_highdim,ref_left,1.0,1
sub001,./img/object-9_120-levels_1D/object9F0Level34F1Level40.png,./img/object-9_120-levels_1D/object9F0Level54F1Level40.png,./img/object-9_120-levels_1D/object9F0Level104F1Level40.png,0,0,1478.8999999985099,q,practice,triplets-canvas-keyboard-response,9.0,27288.0,0.0-1.0-0.8,1.0,True,q,34,54,104,-20,-70,-50,20,70,50,34_54_104,54,104,-20,-70,-50,20,70,50,34_54_104,-20_-70_-50,20_70_50,1,1,50,query_left,54.0,ref_lowdim,ref_lowdim,ref_left,1.0,1
sub001,./img/object-9_120-levels_1D/object9F0Level104F1Level40.png,./img/object-9_120-levels_1D/object9F0Level84F1Level40.png,./img/object-9_120-levels_1D/object9F0Level94F1Level40.png,0,0,1261.800000000745,p,practice,triplets-canvas-keyboard-response,10.0,29794.0,0.0-1.0-0.9,1.0,True,p,104,84,94,20,10,-10,20,10,10,104_84_94,84,94,20,10,-10,20,10,10,104_84_94,20_10_-10,10_20_10,1,1,10,query_right,94.0,ref_highdim,ref_highdim,ref_right,1.0,1
sub001,./img/object-9_120-levels_1D/object9F0Level29F1Level40.png,./img/object-9_120-levels_1D/object9F0Level99F1Level40.png,./img/object-9_120-levels_1D/object9F0Level69F1Level40.png,0,0,2284.199999999255,p,triplet_task,triplets-canvas-keyboard-response,1.0,9105.0,0.0-1.0-0.0,1.0,True,p,29,99,69,-70,-40,30,70,40,30,29_99_69,69,99,-40,-70,-30,40,70,30,29_69_99,-40_-70_-30,40_70_30,1,1,30,query_left,69.0,ref_lowdim,ref_lowdim,ref_right,1.0,1
sub001,./img/object-9_120-levels_1D/object9F0Level79F1Level40.png,./img/object-9_120-levels_1D/object9F0Level89F1Level40.png,./img/object-9_120-levels_1D/object9F0Level49F1Level40.png,0,0,1071.8999999985099,q,triplet_task,triplets-canvas-keyboard-response,2.0,11610.0,0.0-1.0-0.1,1.0,True,q,79,89,49,-10,30,40,10,30,40,79_89_49,49,89,30,-10,-40,30,10,40,79_49_89,30_-10_-40,10_30_40,1,1,20,query_middle,89.0,ref_highdim,ref_highdim,ref_left,1.0,1
sub001,./img/object-9_120-levels_1D/object9F0Level29F1Level40.png,./img/object-9_120-levels_1D/object9F0Level99F1Level40.png,./img/object-9_120-levels_1D/object9F0Level49F1Level40.png,0,0,918.5,p,triplet_task,triplets-canvas-keyboard-response,3.0,14118.0,0.0-1.0-0.2,1.0,True,p,29,99,49,-70,-20,50,70,20,50,29_99_49,49,99,-20,-70,-50,20,70,50,29_49_99,-20_-70_-50,20_70_50,1,1,50,query_left,49.0,ref_lowdim,ref_lowdim,ref_right,1.0,1
sub001,./img/object-9_120-levels_1D/object9F0Level59F1Level40.png,./img/object-9_120-levels_1D/object9F0Level89F1Level40.png,./img/object-9_120-levels_1D/object9F0Level69F1Level40.png,0,0,927.6999999992549,p,triplet_task,triplets-canvas-keyboard-response,4.0,16625.0,0.0-1.0-0.3,1.0,True,p,59,89,69,-30,-10,20,30,10,20,59_89_69,69,89,-10,-30,-20,10,30,20,59_69_89,-10_-30_-20,10_30_20,1,1,20,query_left,69.0,ref_lowdim,ref_lowdim,ref_right,1.0,1
sub001,./img/object-9_120-levels_1D/object9F0Level109F1Level40.png,./img/object-9_120-levels_1D/object9F0Level19F1Level40.png,./img/object-9_120-levels_1D/object9F0Level79F1Level40.png,0,0,767.9000000022352,p,triplet_task,triplets-canvas-keyboard-response,5.0,19132.0,0.0-1.0-0.4,1.0,True,p,109,19,79,90,30,-60,90,30,60,109_19_79,19,79,90,30,-60,90,30,60,109_19_79,90_30_-60,30_90_60,1,1,60,query_right,79.0,ref_highdim,ref_highdim,ref_right,1.0,1
sub001,./img/object-9_120-levels_1D/object9F0Level39F1Level40.png,./img/object-9_120-levels_1D/object9F0Level29F1Level40.png,./img/object-9_120-levels_1D/object9F0Level19F1Level40.png,0,0,772.3999999985099,q,triplet_task,triplets-canvas-keyboard-response,6.0,21639.0,0.0-1.0-0.5,1.0,True,q,39,29,19,10,20,10,10,20,10,39_29_19,19,29,20,10,-10,20,10,10,39_19_29,20_10_-10,10_20_10,1,1,10,query_right,29.0,ref_highdim,ref_highdim,ref_left,1.0,1
sub001,./img/object-9_120-levels_1D/object9F0Level19F1Level40.png,./img/object-9_120-levels_1D/object9F0Level49F1Level40.png,./img/object-9_120-levels_1D/object9F0Level79F1Level40.png,0,0,891.8000000007451,q,triplet_task,triplets-canvas-keyboard-response,7.0,24150.0,0.0-1.0-0.6,1.0,True,q,19,49,79,-30,-60,-30,30,60,30,19_49_79,49,79,-30,-60,-30,30,60,30,19_49_79,-30_-60_-30,30_60_30,1,1,30,query_left,49.0,ref_lowdim,ref_lowdim,ref_left,1.0,1
sub001,./img/object-9_120-levels_1D/object9F0Level49F1Level40.png,./img/object-9_120-levels_1D/object9F0Level89F1Level40.png,./img/object-9_120-levels_1D/object9F0Level99F1Level40.png,0,0,1642.2000000029802,p,triplet_task,triplets-canvas-keyboard-response,8.0,26657.0,0.0-1.0-0.7,1.0,False,q,49,89,99,-40,-50,-10,40,50,10,49_89_99,89,99,-40,-50,-10,40,50,10,49_89_99,-40_-50_-10,40_50_10,1,1,10,query_left,99.0,ref_highdim,ref_lowdim,ref_left,0.0,1
sub001,./img/object-9_120-levels_1D/object9F0Level29F1Level40.png,./img/object-9_120-levels_1D/object9F0Level59F1Level40.png,./img/object-9_120-levels_1D/object9F0Level69F1Level40.png,0,0,959.5999999977648,q,triplet_task,triplets-canvas-keyboard-response,9.0,29167.0,0.0-1.0-0.8,1.0,True,q,29,59,69,-30,-40,-10,30,40,10,29_59_69,59,69,-30,-40,-10,30,40,10,29_59_69,-30_-40_-10,30_40_10,1,1,10,query_left,59.0,ref_lowdim,ref_lowdim,ref_left,1.0,1
sub001,./img/object-9_120-levels_1D/object9F0Level69F1Level40.png,./img/object-9_120-levels_1D/object9F0Level19F1Level40.png,./img/object-9_120-levels_1D/object9F0Level59F1Level40.png,0,0,809.5,p,triplet_task,triplets-canvas-keyboard-response,10.0,31674.0,0.0-1.0-0.9,1.0,True,p,69,19,59,50,10,-40,50,10,40,69_19_59,19,59,50,10,-40,50,10,40,69_19_59,50_10_-40,10_50_40,1,1,40,query_right,59.0,ref_highdim,ref_highdim,ref_right,1.0,1
sub001,./img/object-9_120-levels_1D/object9F0Level79F1Level40.png,./img/object-9_120-levels_1D/object9F0Level39F1Level40.png,./img/object-9_120-levels_1D/object9F0Level29F1Level40.png,0,0,877.5,q,triplet_task,triplets-canvas-keyboard-response,11.0,34178.0,0.0-1.0-0.10,1.0,True,q,79,39,29,40,50,10,40,50,10,79_39_29,29,39,50,40,-10,50,40,10,79_29_39,50_40_-10,40_50_10,1,1,10,query_right,39.0,ref_highdim,ref_highdim,ref_left,1.0,1
sub001,./img/object-9_120-levels_1D/object9F0Level59F1Level40.png,./img/object-9_120-levels_1D/object9F0Level69F1Level40.png,./img/object-9_120-levels_1D/object9F0Level99F1Level40.png,0,0,1000.6000000014901,q,triplet_task,triplets-canvas-keyboard-response,12.0,36684.0,0.0-1.0-0.11,1.0,True,q,59,69,99,-10,-40,-30,10,40,30,59_69_99,69,99,-10,-40,-30,10,40,30,59_69_99,-10_-40_-30,10_40_30,1,1,30,query_left,69.0,ref_lowdim,ref_lowdim,ref_left,1.0,1
sub001,./img/object-9_120-levels_1D/object9F0Level89F1Level40.png,./img/object-9_120-levels_1D/object9F0Level39F1Level40.png,./img/object-9_120-levels_1D/object9F0Level59F1Level40.png,0,0,907.9000000022352,p,triplet_task,triplets-canvas-keyboard-response,13.0,39187.0,0.0-1.0-0.12,1.0,True,p,89,39,59,50,30,-20,50,30,20,89_39_59,39,59,50,30,-20,50,30,20,89_39_59,50_30_-20,30_50_20,1,1,20,query_right,59.0,ref_highdim,ref_highdim,ref_right,1.0,1
sub001,./img/object-9_120-levels_1D/object9F0Level79F1Level40.png,./img/object-9_120-levels_1D/object9F0Level69F1Level40.png,./img/object-9_120-levels_1D/object9F0Level119F1Level40.png,0,0,1156.7999999970198,q,triplet_task,triplets-canvas-keyboard-response,14.0,41689.0,0.0-1.0-0.13,1.0,True,q,79,69,119,10,-40,-50,10,40,50,79_69_119,69,119,10,-40,-50,10,40,50,79_69_119,10_-40_-50,10_40_50,1,1,30,query_middle,69.0,ref_lowdim,ref_lowdim,ref_left,1.0,1
sub001,./img/object-9_120-levels_1D/object9F0Level49F1Level40.png,./img/object-9_120-levels_1D/object9F0Level119F1Level40.png,./img/object-9_120-levels_1D/object9F0Level29F1Level40.png,0,0,886.6999999992549,p,triplet_task,triplets-canvas-keyboard-response,15.0,44195.0,0.0-1.0-0.14,1.0,True,p,49,119,29,-70,20,90,70,20,90,49_119_29,29,119,20,-70,-90,20,70,90,49_29_119,20_-70_-90,20_70_90,1,1,50,query_middle,29.0,ref_lowdim,ref_lowdim,ref_right,1.0,1
sub001,./img/object-9_120-levels_1D/object9F0Level69F1Level40.png,./img/object-9_120-levels_1D/object9F0Level49F1Level40.png,./img/object-9_120-levels_1D/object9F0Level59F1Level40.png,0,0,1220.199999999255,q,triplet_task,triplets-canvas-keyboard-response,16.0,46698.0,0.0-1.0-0.15,1.0,False,p,69,49,59,20,10,-10,20,10,10,69_49_59,49,59,20,10,-10,20,10,10,69_49_59,20_10_-10,10_20_10,1,2,10,query_right,49.0,ref_lowdim,ref_highdim,ref_right,0.0,1
sub001,./img/object-9_120-levels_1D/object9F0Level99F1Level40.png,./img/object-9_120-levels_1D/object9F0Level69F1Level40.png,./img/object-9_120-levels_1D/object9F0Level29F1Level40.png,0,0,815.1999999992549,q,triplet_task,triplets-canvas-keyboard-response,17.0,49200.0,0.0-1.0-0.16,1.0,True,q,99,69,29,30,70,40,30,70,40,99_69_29,29,69,70,30,-40,70,30,40,99_29_69,70_30_-40,30_70_40,1,1,40,query_right,69.0,ref_highdim,ref_highdim,ref_left,1.0,1
sub001,./img/object-9_120-levels_1D/object9F0Level29F1Level40.png,./img/object-9_120-levels_1D/object9F0Level119F1Level40.png,./img/object-9_120-levels_1D/object9F0Level109F1Level40.png,0,0,767.1000000014901,p,triplet_task,triplets-canvas-keyboard-response,18.0,51702.0,0.0-1.0-0.17,1.0,True,p,29,119,109,-90,-80,10,90,80,10,29_119_109,109,119,-80,-90,-10,80,90,10,29_109_119,-80_-90_-10,80_90_10,1,1,10,query_left,109.0,ref_lowdim,ref_lowdim,ref_right,1.0,1
sub001,./img/object-9_120-levels_1D/object9F0Level69F1Level40.png,./img/object-9_120-levels_1D/object9F0Level119F1Level40.png,./img/object-9_120-levels_1D/object9F0Level109F1Level40.png,0,0,843.1999999992549,p,triplet_task,triplets-canvas-keyboard-response,19.0,54204.0,0.0-1.0-0.18,1.0,True,p,69,119,109,-50,-40,10,50,40,10,69_119_109,109,119,-40,-50,-10,40,50,10,69_109_119,-40_-50_-10,40_50_10,1,2,10,query_left,109.0,ref_lowdim,ref_lowdim,ref_right,1.0,1
sub001,./img/object-9_120-levels_1D/object9F0Level119F1Level40.png,./img/object-9_120-levels_1D/object9F0Level59F1Level40.png,./img/object-9_120-levels_1D/object9F0Level89F1Level40.png,0,0,947.3999999985099,p,triplet_task,triplets-canvas-keyboard-response,20.0,56706.0,0.0-1.0-0.19,1.0,True,p,119,59,89,60,30,-30,60,30,30,119_59_89,59,89,60,30,-30,60,30,30,119_59_89,60_30_-30,30_60_30,1,1,30,query_right,89.0,ref_highdim,ref_highdim,ref_right,1.0,1
sub001,./img/object-9_120-levels_1D/object9F0Level99F1Level40.png,./img/object-9_120-levels_1D/object9F0Level29F1Level40.png,./img/object-9_120-levels_1D/object9F0Level19F1Level40.png,0,0,981.8000000007451,q,triplet_task,triplets-canvas-keyboard-response,21.0,59221.0,0.0-1.0-0.20,1.0,True,q,99,29,19,70,80,10,70,80,10,99_29_19,19,29,80,70,-10,80,70,10,99_19_29,80_70_-10,70_80_10,1,1,10,query_right,29.0,ref_highdim,ref_highdim,ref_left,1.0,1
sub001,./img/object-9_120-levels_1D/object9F0Level109F1Level40.png,./img/object-9_120-levels_1D/object9F0Level119F1Level40.png,./img/object-9_120-levels_1D/object9F0Level19F1Level40.png,0,0,812.3000000007451,q,triplet_task,triplets-canvas-keyboard-response,22.0,61731.0,0.0-1.0-0.21,1.0,True,q,109,119,19,-10,90,100,10,90,100,109_119_19,19,119,90,-10,-100,90,10,100,109_19_119,90_-10_-100,10_90_100,1,1,80,query_middle,119.0,ref_highdim,ref_highdim,ref_left,1.0,1
sub001,./img/object-9_120-levels_1D/object9F0Level89F1Level40.png,./img/object-9_120-levels_1D/object9F0Level39F1Level40.png,./img/object-9_120-levels_1D/object9F0Level19F1Level40.png,0,0,1059.2999999970198,q,triplet_task,triplets-canvas-keyboard-response,23.0,64239.0,0.0-1.0-0.22,1.0,True,q,89,39,19,50,70,20,50,70,20,89_39_19,19,39,70,50,-20,70,50,20,89_19_39,70_50_-20,50_70_20,1,1,20,query_right,39.0,ref_highdim,ref_highdim,ref_left,1.0,1
sub001,./img/object-9_120-levels_1D/object9F0Level19F1Level40.png,./img/object-9_120-levels_1D/object9F0Level39F1Level40.png,./img/object-9_120-levels_1D/object9F0Level59F1Level40.png,0,0,1225.5,q,triplet_task,triplets-canvas-keyboard-response,24.0,66747.0,0.0-1.0-0.23,1.0,True,q,19,39,59,-20,-40,-20,20,40,20,19_39_59,39,59,-20,-40,-20,20,40,20,19_39_59,-20_-40_-20,20_40_20,1,1,20,query_left,39.0,ref_lowdim,ref_lowdim,ref_left,1.0,1
sub001,./img/object-9_120-levels_1D/object9F0Level49F1Level40.png,./img/object-9_120-levels_1D/object9F0Level79F1Level40.png,./img/object-9_120-levels_1D/object9F0Level99F1Level40.png,0,0,1220.0999999977648,q,triplet_task,triplets-canvas-keyboard-response,25.0,69254.0,0.0-1.0-0.24,1.0,True,q,49,79,99,-30,-50,-20,30,50,20,49_79_99,79,99,-30,-50,-20,30,50,20,49_79_99,-30_-50_-20,30_50_20,1,1,20,query_left,79.0,ref_lowdim,ref_lowdim,ref_left,1.0,1
sub001,./img/object-9_120-levels_1D/object9F0Level99F1Level40.png,./img/object-9_120-levels_1D/object9F0Level119F1Level40.png,./img/object-9_120-levels_1D/object9F0Level39F1Level40.png,0,0,730.0,q,triplet_task,triplets-canvas-keyboard-response,26.0,71762.0,0.0-1.0-0.25,1.0,True,q,99,119,39,-20,60,80,20,60,80,99_119_39,39,119,60,-20,-80,60,20,80,99_39_119,60_-20_-80,20_60_80,1,1,40,query_middle,119.0,ref_highdim,ref_highdim,ref_left,1.0,1
sub001,./img/object-9_120-levels_1D/object9F0Level89F1Level40.png,./img/object-9_120-levels_1D/object9F0Level109F1Level40.png,./img/object-9_120-levels_1D/object9F0Level19F1Level40.png,0,0,588.0999999977648,q,triplet_task,triplets-canvas-keyboard-response,27.0,74266.0,0.0-1.0-0.26,1.0,True,q,89,109,19,-20,70,90,20,70,90,89_109_19,19,109,70,-20,-90,70,20,90,89_19_109,70_-20_-90,20_70_90,1,1,50,query_middle,109.0,ref_highdim,ref_highdim,ref_left,1.0,1
sub001,./img/object-9_120-levels_1D/object9F0Level59F1Level40.png,./img/object-9_120-levels_1D/object9F0Level49F1Level40.png,./img/object-9_120-levels_1D/object9F0Level89F1Level40.png,0,0,726.3000000007451,q,triplet_task,triplets-canvas-keyboard-response,28.0,76777.0,0.0-1.0-0.27,1.0,True,q,59,49,89,10,-30,-40,10,30,40,59_49_89,49,89,10,-30,-40,10,30,40,59_49_89,10_-30_-40,10_30_40,1,1,20,query_middle,49.0,ref_lowdim,ref_lowdim,ref_left,1.0,1
sub001,./img/object-9_120-levels_1D/object9F0Level19F1Level40.png,./img/object-9_120-levels_1D/object9F0Level79F1Level40.png,./img/object-9_120-levels_1D/object9F0Level119F1Level40.png,0,0,964.7999999970198,q,triplet_task,triplets-canvas-keyboard-response,29.0,79285.0,0.0-1.0-0.28,1.0,True,q,19,79,119,-60,-100,-40,60,100,40,19_79_119,79,119,-60,-100,-40,60,100,40,19_79_119,-60_-100_-40,60_100_40,1,1,40,query_left,79.0,ref_lowdim,ref_lowdim,ref_left,1.0,1
sub001,./img/object-9_120-levels_1D/object9F0Level29F1Level40.png,./img/object-9_120-levels_1D/object9F0Level99F1Level40.png,./img/object-9_120-levels_1D/object9F0Level119F1Level40.png,0,0,963.0,q,triplet_task,triplets-canvas-keyboard-response,30.0,81793.0,0.0-1.0-0.29,1.0,True,q,29,99,119,-70,-90,-20,70,90,20,29_99_119,99,119,-70,-90,-20,70,90,20,29_99_119,-70_-90_-20,70_90_20,1,1,20,query_left,99.0,ref_lowdim,ref_lowdim,ref_left,1.0,1
sub001,./img/object-9_120-levels_1D/object9F0Level99F1Level40.png,./img/object-9_120-levels_1D/object9F0Level79F1Level40.png,./img/object-9_120-levels_1D/object9F0Level19F1Level40.png,0,0,740.4000000022352,q,triplet_task,triplets-canvas-keyboard-response,31.0,84309.0,0.0-1.0-0.30,1.0,True,q,99,79,19,20,80,60,20,80,60,99_79_19,19,79,80,20,-60,80,20,60,99_19_79,80_20_-60,20_80_60,1,1,60,query_right,79.0,ref_highdim,ref_highdim,ref_left,1.0,1
sub001,./img/object-9_120-levels_1D/object9F0Level89F1Level40.png,./img/object-9_120-levels_1D/object9F0Level119F1Level40.png,./img/object-9_120-levels_1D/object9F0Level109F1Level40.png,0,0,969.0999999977648,p,triplet_task,triplets-canvas-keyboard-response,32.0,86819.0,0.0-1.0-0.31,1.0,True,p,89,119,109,-30,-20,10,30,20,10,89_119_109,109,119,-20,-30,-10,20,30,10,89_109_119,-20_-30_-10,20_30_10,1,1,10,query_left,109.0,ref_lowdim,ref_lowdim,ref_right,1.0,1
sub001,./img/object-9_120-levels_1D/object9F0Level69F1Level40.png,./img/object-9_120-levels_1D/object9F0Level89F1Level40.png,./img/object-9_120-levels_1D/object9F0Level49F1Level40.png,0,0,626.4000000022352,q,triplet_task,triplets-canvas-keyboard-response,33.0,89327.0,0.0-1.0-0.32,1.0,,,69,89,49,-20,20,40,20,20,40,69_89_49,49,89,20,-20,-40,20,20,40,69_49_89,20_-20_-40,20_20_40,1,1,0,query_middle,89.0,ref_highdim,nan,nan,,1
sub001,./img/object-9_120-levels_1D/object9F0Level29F1Level40.png,./img/object-9_120-levels_1D/object9F0Level99F1Level40.png,./img/object-9_120-levels_1D/object9F0Level59F1Level40.png,0,0,846.3000000007451,p,triplet_task,triplets-canvas-keyboard-response,34.0,91835.0,0.0-1.0-0.33,1.0,True,p,29,99,59,-70,-30,40,70,30,40,29_99_59,59,99,-30,-70,-40,30,70,40,29_59_99,-30_-70_-40,30_70_40,1,1,40,query_left,59.0,ref_lowdim,ref_lowdim,ref_right,1.0,1
sub001,./img/object-9_120-levels_1D/object9F0Level89F1Level40.png,./img/object-9_120-levels_1D/object9F0Level69F1Level40.png,./img/object-9_120-levels_1D/object9F0Level99F1Level40.png,0,0,938.4000000022352,q,triplet_task,triplets-canvas-keyboard-response,35.0,94343.0,0.0-1.0-0.34,1.0,False,p,89,69,99,20,-10,-30,20,10,30,89_69_99,69,99,20,-10,-30,20,10,30,89_69_99,20_-10_-30,10_20_30,1,1,10,query_middle,69.0,ref_lowdim,ref_highdim,ref_right,0.0,1
sub001,./img/object-9_120-levels_1D/object9F0Level119F1Level40.png,./img/object-9_120-levels_1D/object9F0Level109F1Level40.png,./img/object-9_120-levels_1D/object9F0Level39F1Level40.png,0,0,697.0,q,triplet_task,triplets-canvas-keyboard-response,36.0,96850.0,0.0-1.0-0.35,1.0,True,q,119,109,39,10,80,70,10,80,70,119_109_39,39,109,80,10,-70,80,10,70,119_39_109,80_10_-70,10_80_70,1,1,70,query_right,109.0,ref_highdim,ref_highdim,ref_left,1.0,1
sub001,./img/object-9_120-levels_1D/object9F0Level79F1Level40.png,./img/object-9_120-levels_1D/object9F0Level49F1Level40.png,./img/object-9_120-levels_1D/object9F0Level19F1Level40.png,0,0,795.1999999992549,q,triplet_task,triplets-canvas-keyboard-response,37.0,99357.0,0.0-1.0-0.36,1.0,True,q,79,49,19,30,60,30,30,60,30,79_49_19,19,49,60,30,-30,60,30,30,79_19_49,60_30_-30,30_60_30,1,2,30,query_right,49.0,ref_highdim,ref_highdim,ref_left,1.0,1
sub001,./img/object-9_120-levels_1D/object9F0Level99F1Level40.png,./img/object-9_120-levels_1D/object9F0Level49F1Level40.png,./img/object-9_120-levels_1D/object9F0Level19F1Level40.png,0,0,729.9000000022352,q,triplet_task,triplets-canvas-keyboard-response,38.0,101865.0,0.0-1.0-0.37,1.0,True,q,99,49,19,50,80,30,50,80,30,99_49_19,19,49,80,50,-30,80,50,30,99_19_49,80_50_-30,50_80_30,1,1,30,query_right,49.0,ref_highdim,ref_highdim,ref_left,1.0,1
sub001,./img/object-9_120-levels_1D/object9F0Level19F1Level40.png,./img/object-9_120-levels_1D/object9F0Level59F1Level40.png,./img/object-9_120-levels_1D/object9F0Level79F1Level40.png,0,0,859.5,q,triplet_task,triplets-canvas-keyboard-response,39.0,104373.0,0.0-1.0-0.38,1.0,True,q,19,59,79,-40,-60,-20,40,60,20,19_59_79,59,79,-40,-60,-20,40,60,20,19_59_79,-40_-60_-20,40_60_20,1,1,20,query_left,59.0,ref_lowdim,ref_lowdim,ref_left,1.0,1
sub001,./img/object-9_120-levels_1D/object9F0Level109F1Level40.png,./img/object-9_120-levels_1D/object9F0Level59F1Level40.png,./img/object-9_120-levels_1D/object9F0Level49F1Level40.png,0,0,1353.8999999985099,q,triplet_task,triplets-canvas-keyboard-response,40.0,106880.0,0.0-1.0-0.39,1.0,True,q,109,59,49,50,60,10,50,60,10,109_59_49,49,59,60,50,-10,60,50,10,109_49_59,60_50_-10,50_60_10,1,1,10,query_right,59.0,ref_highdim,ref_highdim,ref_left,1.0,1
sub001,./img/object-9_120-levels_1D/object9F0Level49F1Level40.png,./img/object-9_120-levels_1D/object9F0Level119F1Level40.png,./img/object-9_120-levels_1D/object9F0Level59F1Level40.png,0,0,1188.800000000745,p,triplet_task,triplets-canvas-keyboard-response,41.0,109388.0,0.0-1.0-0.40,1.0,True,p,49,119,59,-70,-10,60,70,10,60,49_119_59,59,119,-10,-70,-60,10,70,60,49_59_119,-10_-70_-60,10_70_60,1,1,60,query_left,59.0,ref_lowdim,ref_lowdim,ref_right,1.0,1
sub001,./img/object-9_120-levels_1D/object9F0Level119F1Level40.png,./img/object-9_120-levels_1D/object9F0Level99F1Level40.png,./img/object-9_120-levels_1D/object9F0Level29F1Level40.png,0,0,672.4000000022352,q,triplet_task,triplets-canvas-keyboard-response,42.0,111896.0,0.0-1.0-0.41,1.0,True,q,119,99,29,20,90,70,20,90,70,119_99_29,29,99,90,20,-70,90,20,70,119_29_99,90_20_-70,20_90_70,1,1,70,query_right,99.0,ref_highdim,ref_highdim,ref_left,1.0,1
sub001,./img/object-9_120-levels_1D/object9F0Level89F1Level40.png,./img/object-9_120-levels_1D/object9F0Level109F1Level40.png,./img/object-9_120-levels_1D/object9F0Level29F1Level40.png,0,0,734.3999999985099,q,triplet_task,triplets-canvas-keyboard-response,43.0,114400.0,0.0-1.0-0.42,1.0,True,q,89,109,29,-20,60,80,20,60,80,89_109_29,29,109,60,-20,-80,60,20,80,89_29_109,60_-20_-80,20_60_80,1,2,40,query_middle,109.0,ref_highdim,ref_highdim,ref_left,1.0,1
sub001,./img/object-9_120-levels_1D/object9F0Level69F1Level40.png,./img/object-9_120-levels_1D/object9F0Level79F1Level40.png,./img/object-9_120-levels_1D/object9F0Level119F1Level40.png,0,0,972.3000000007451,q,triplet_task,triplets-canvas-keyboard-response,44.0,116910.0,0.0-1.0-0.43,1.0,True,q,69,79,119,-10,-50,-40,10,50,40,69_79_119,79,119,-10,-50,-40,10,50,40,69_79_119,-10_-50_-40,10_50_40,1,1,40,query_left,79.0,ref_lowdim,ref_lowdim,ref_left,1.0,1
sub001,./img/object-9_120-levels_1D/object9F0Level39F1Level40.png,./img/object-9_120-levels_1D/object9F0Level59F1Level40.png,./img/object-9_120-levels_1D/object9F0Level49F1Level40.png,0,0,1279.0,p,triplet_task,triplets-canvas-keyboard-response,45.0,119413.0,0.0-1.0-0.44,1.0,True,p,39,59,49,-20,-10,10,20,10,10,39_59_49,49,59,-10,-20,-10,10,20,10,39_49_59,-10_-20_-10,10_20_10,1,1,10,query_left,49.0,ref_lowdim,ref_lowdim,ref_right,1.0,1
sub001,./img/object-9_120-levels_1D/object9F0Level109F1Level40.png,./img/object-9_120-levels_1D/object9F0Level69F1Level40.png,./img/object-9_120-levels_1D/object9F0Level19F1Level40.png,0,0,847.2999999970198,q,triplet_task,triplets-canvas-keyboard-response,46.0,121920.0,0.0-1.0-0.45,1.0,True,q,109,69,19,40,90,50,40,90,50,109_69_19,19,69,90,40,-50,90,40,50,109_19_69,90_40_-50,40_90_50,1,1,50,query_right,69.0,ref_highdim,ref_highdim,ref_left,1.0,1
sub001,./img/object-9_120-levels_1D/object9F0Level49F1Level40.png,./img/object-9_120-levels_1D/object9F0Level69F1Level40.png,./img/object-9_120-levels_1D/object9F0Level19F1Level40.png,0,0,1059.3999999985099,p,triplet_task,triplets-canvas-keyboard-response,47.0,124428.0,0.0-1.0-0.46,1.0,False,q,49,69,19,-20,30,50,20,30,50,49_69_19,19,69,30,-20,-50,30,20,50,49_19_69,30_-20_-50,20_30_50,1,1,10,query_middle,19.0,ref_lowdim,ref_highdim,ref_left,0.0,1
sub001,./img/object-9_120-levels_1D/object9F0Level89F1Level40.png,./img/object-9_120-levels_1D/object9F0Level69F1Level40.png,./img/object-9_120-levels_1D/object9F0Level79F1Level40.png,0,0,1433.699999999255,p,triplet_task,triplets-canvas-keyboard-response,48.0,126936.0,0.0-1.0-0.47,1.0,True,p,89,69,79,20,10,-10,20,10,10,89_69_79,69,79,20,10,-10,20,10,10,89_69_79,20_10_-10,10_20_10,1,3,10,query_right,79.0,ref_highdim,ref_highdim,ref_right,1.0,1
sub001,./img/object-9_120-levels_1D/object9F0Level119F1Level40.png,./img/object-9_120-levels_1D/object9F0Level49F1Level40.png,./img/object-9_120-levels_1D/object9F0Level99F1Level40.png,0,0,803.6999999992549,p,triplet_task,triplets-canvas-keyboard-response,49.0,129444.0,0.0-1.0-0.48,1.0,True,p,119,49,99,70,20,-50,70,20,50,119_49_99,49,99,70,20,-50,70,20,50,119_49_99,70_20_-50,20_70_50,1,1,50,query_right,99.0,ref_highdim,ref_highdim,ref_right,1.0,1
sub001,./img/object-9_120-levels_1D/object9F0Level49F1Level40.png,./img/object-9_120-levels_1D/object9F0Level99F1Level40.png,./img/object-9_120-levels_1D/object9F0Level119F1Level40.png,0,0,1176.0999999977648,q,triplet_task,triplets-canvas-keyboard-response,50.0,131951.0,0.0-1.0-0.49,1.0,True,q,49,99,119,-50,-70,-20,50,70,20,49_99_119,99,119,-50,-70,-20,50,70,20,49_99_119,-50_-70_-20,50_70_20,1,1,20,query_left,99.0,ref_lowdim,ref_lowdim,ref_left,1.0,1
sub001,./img/object-9_120-levels_1D/object9F0Level69F1Level40.png,./img/object-9_120-levels_1D/object9F0Level29F1Level40.png,./img/object-9_120-levels_1D/object9F0Level79F1Level40.png,0,0,1212.300000000745,p,triplet_task,triplets-canvas-keyboard-response,51.0,134459.0,0.0-1.0-0.50,1.0,True,p,69,29,79,40,-10,-50,40,10,50,69_29_79,29,79,40,-10,-50,40,10,50,69_29_79,40_-10_-50,10_40_50,1,1,30,query_middle,79.0,ref_highdim,ref_highdim,ref_right,1.0,1
sub001,./img/object-9_120-levels_1D/object9F0Level119F1Level40.png,./img/object-9_120-levels_1D/object9F0Level29F1Level40.png,./img/object-9_120-levels_1D/object9F0Level69F1Level40.png,0,0,978.6000000014901,p,triplet_task,triplets-canvas-keyboard-response,52.0,136967.0,0.0-1.0-0.51,1.0,True,p,119,29,69,90,50,-40,90,50,40,119_29_69,29,69,90,50,-40,90,50,40,119_29_69,90_50_-40,50_90_40,1,1,40,query_right,69.0,ref_highdim,ref_highdim,ref_right,1.0,1
sub001,./img/object-9_120-levels_1D/object9F0Level99F1Level40.png,./img/object-9_120-levels_1D/object9F0Level29F1Level40.png,./img/object-9_120-levels_1D/object9F0Level49F1Level40.png,0,0,1492.800000000745,p,triplet_task,triplets-canvas-keyboard-response,53.0,139469.0,0.0-1.0-0.52,1.0,True,p,99,29,49,70,50,-20,70,50,20,99_29_49,29,49,70,50,-20,70,50,20,99_29_49,70_50_-20,50_70_20,1,2,20,query_right,49.0,ref_highdim,ref_highdim,ref_right,1.0,1
sub001,./img/object-9_120-levels_1D/object9F0Level69F1Level40.png,./img/object-9_120-levels_1D/object9F0Level79F1Level40.png,./img/object-9_120-levels_1D/object9F0Level89F1Level40.png,0,0,1062.2999999970198,q,triplet_task,triplets-canvas-keyboard-response,54.0,141973.0,0.0-1.0-0.53,1.0,True,q,69,79,89,-10,-20,-10,10,20,10,69_79_89,79,89,-10,-20,-10,10,20,10,69_79_89,-10_-20_-10,10_20_10,1,2,10,query_left,79.0,ref_lowdim,ref_lowdim,ref_left,1.0,1
sub001,./img/object-9_120-levels_1D/object9F0Level59F1Level40.png,./img/object-9_120-levels_1D/object9F0Level29F1Level40.png,./img/object-9_120-levels_1D/object9F0Level89F1Level40.png,0,0,1366.199999999255,p,triplet_task,triplets-canvas-keyboard-response,55.0,144481.0,0.0-1.0-0.54,1.0,,,59,29,89,30,-30,-60,30,30,60,59_29_89,29,89,30,-30,-60,30,30,60,59_29_89,30_-30_-60,30_30_60,1,1,0,query_middle,89.0,ref_highdim,nan,nan,,1
sub001,./img/object-9_120-levels_1D/object9F0Level119F1Level40.png,./img/object-9_120-levels_1D/object9F0Level39F1Level40.png,./img/object-9_120-levels_1D/object9F0Level79F1Level40.png,0,0,939.8000000007451,p,triplet_task,triplets-canvas-keyboard-response,56.0,146986.0,0.0-1.0-0.55,1.0,True,p,119,39,79,80,40,-40,80,40,40,119_39_79,39,79,80,40,-40,80,40,40,119_39_79,80_40_-40,40_80_40,1,1,40,query_right,79.0,ref_highdim,ref_highdim,ref_right,1.0,1
sub001,./img/object-9_120-levels_1D/object9F0Level79F1Level40.png,./img/object-9_120-levels_1D/object9F0Level59F1Level40.png,./img/object-9_120-levels_1D/object9F0Level99F1Level40.png,0,0,1256.5999999977648,p,triplet_task,triplets-canvas-keyboard-response,57.0,149493.0,0.0-1.0-0.56,1.0,,,79,59,99,20,-20,-40,20,20,40,79_59_99,59,99,20,-20,-40,20,20,40,79_59_99,20_-20_-40,20_20_40,1,2,0,query_middle,99.0,ref_highdim,nan,nan,,1
sub001,./img/object-9_120-levels_1D/object9F0Level19F1Level40.png,./img/object-9_120-levels_1D/object9F0Level49F1Level40.png,./img/object-9_120-levels_1D/object9F0Level29F1Level40.png,0,0,1047.7999999970198,p,triplet_task,triplets-canvas-keyboard-response,58.0,152001.0,0.0-1.0-0.57,1.0,True,p,19,49,29,-30,-10,20,30,10,20,19_49_29,29,49,-10,-30,-20,10,30,20,19_29_49,-10_-30_-20,10_30_20,1,2,20,query_left,29.0,ref_lowdim,ref_lowdim,ref_right,1.0,1
sub001,./img/object-9_120-levels_1D/object9F0Level119F1Level40.png,./img/object-9_120-levels_1D/object9F0Level19F1Level40.png,./img/object-9_120-levels_1D/object9F0Level59F1Level40.png,0,0,961.5999999977648,p,triplet_task,triplets-canvas-keyboard-response,59.0,154509.0,0.0-1.0-0.58,1.0,True,p,119,19,59,100,60,-40,100,60,40,119_19_59,19,59,100,60,-40,100,60,40,119_19_59,100_60_-40,60_100_40,1,1,40,query_right,59.0,ref_highdim,ref_highdim,ref_right,1.0,1
sub001,./img/object-9_120-levels_1D/object9F0Level99F1Level40.png,./img/object-9_120-levels_1D/object9F0Level89F1Level40.png,./img/object-9_120-levels_1D/object9F0Level39F1Level40.png,0,0,830.1999999992549,q,triplet_task,triplets-canvas-keyboard-response,60.0,157016.0,0.0-1.0-0.59,1.0,True,q,99,89,39,10,60,50,10,60,50,99_89_39,39,89,60,10,-50,60,10,50,99_39_89,60_10_-50,10_60_50,1,1,50,query_right,89.0,ref_highdim,ref_highdim,ref_left,1.0,1
sub001,./img/object-9_120-levels_1D/object9F0Level119F1Level40.png,./img/object-9_120-levels_1D/object9F0Level89F1Level40.png,./img/object-9_120-levels_1D/object9F0Level79F1Level40.png,0,0,924.6000000014901,q,triplet_task,triplets-canvas-keyboard-response,61.0,159524.0,0.0-1.0-0.60,1.0,True,q,119,89,79,30,40,10,30,40,10,119_89_79,79,89,40,30,-10,40,30,10,119_79_89,40_30_-10,30_40_10,1,1,10,query_right,89.0,ref_highdim,ref_highdim,ref_left,1.0,1
sub001,./img/object-9_120-levels_1D/object9F0Level19F1Level40.png,./img/object-9_120-levels_1D/object9F0Level39F1Level40.png,./img/object-9_120-levels_1D/object9F0Level69F1Level40.png,0,0,830.9000000022352,q,triplet_task,triplets-canvas-keyboard-response,62.0,162031.0,0.0-1.0-0.61,1.0,True,q,19,39,69,-20,-50,-30,20,50,30,19_39_69,39,69,-20,-50,-30,20,50,30,19_39_69,-20_-50_-30,20_50_30,1,1,30,query_left,39.0,ref_lowdim,ref_lowdim,ref_left,1.0,1
sub001,./img/object-9_120-levels_1D/object9F0Level49F1Level40.png,./img/object-9_120-levels_1D/object9F0Level29F1Level40.png,./img/object-9_120-levels_1D/object9F0Level19F1Level40.png,0,0,1028.699999999255,q,triplet_task,triplets-canvas-keyboard-response,63.0,164539.0,0.0-1.0-0.62,1.0,True,q,49,29,19,20,30,10,20,30,10,49_29_19,19,29,30,20,-10,30,20,10,49_19_29,30_20_-10,20_30_10,1,1,10,query_right,29.0,ref_highdim,ref_highdim,ref_left,1.0,1
sub001,./img/object-9_120-levels_1D/object9F0Level119F1Level40.png,./img/object-9_120-levels_1D/object9F0Level29F1Level40.png,./img/object-9_120-levels_1D/object9F0Level19F1Level40.png,0,0,1063.4000000022352,q,triplet_task,triplets-canvas-keyboard-response,64.0,167047.0,0.0-1.0-0.63,1.0,True,q,119,29,19,90,100,10,90,100,10,119_29_19,19,29,100,90,-10,100,90,10,119_19_29,100_90_-10,90_100_10,1,1,10,query_right,29.0,ref_highdim,ref_highdim,ref_left,1.0,1
sub001,./img/object-9_120-levels_1D/object9F0Level39F1Level40.png,./img/object-9_120-levels_1D/object9F0Level109F1Level40.png,./img/object-9_120-levels_1D/object9F0Level29F1Level40.png,0,0,739.2000000029802,p,triplet_task,triplets-canvas-keyboard-response,65.0,169554.0,0.0-1.0-0.64,1.0,True,p,39,109,29,-70,10,80,70,10,80,39_109_29,29,109,10,-70,-80,10,70,80,39_29_109,10_-70_-80,10_70_80,1,1,60,query_middle,29.0,ref_lowdim,ref_lowdim,ref_right,1.0,1
sub001,./img/object-9_120-levels_1D/object9F0Level89F1Level40.png,./img/object-9_120-levels_1D/object9F0Level39F1Level40.png,./img/object-9_120-levels_1D/object9F0Level119F1Level40.png,0,0,593.6000000014901,p,triplet_task,triplets-canvas-keyboard-response,66.0,172057.0,0.0-1.0-0.65,1.0,True,p,89,39,119,50,-30,-80,50,30,80,89_39_119,39,119,50,-30,-80,50,30,80,89_39_119,50_-30_-80,30_50_80,1,1,20,query_middle,119.0,ref_highdim,ref_highdim,ref_right,1.0,1
sub001,./img/object-9_120-levels_1D/object9F0Level39F1Level40.png,./img/object-9_120-levels_1D/object9F0Level99F1Level40.png,./img/object-9_120-levels_1D/object9F0Level119F1Level40.png,0,0,808.3000000007451,q,triplet_task,triplets-canvas-keyboard-response,67.0,174564.0,0.0-1.0-0.66,1.0,True,q,39,99,119,-60,-80,-20,60,80,20,39_99_119,99,119,-60,-80,-20,60,80,20,39_99_119,-60_-80_-20,60_80_20,1,1,20,query_left,99.0,ref_lowdim,ref_lowdim,ref_left,1.0,1
sub001,./img/object-9_120-levels_1D/object9F0Level19F1Level40.png,./img/object-9_120-levels_1D/object9F0Level39F1Level40.png,./img/object-9_120-levels_1D/object9F0Level89F1Level40.png,0,0,631.8000000007451,q,triplet_task,triplets-canvas-keyboard-response,68.0,177070.0,0.0-1.0-0.67,1.0,True,q,19,39,89,-20,-70,-50,20,70,50,19_39_89,39,89,-20,-70,-50,20,70,50,19_39_89,-20_-70_-50,20_70_50,1,2,50,query_left,39.0,ref_lowdim,ref_lowdim,ref_left,1.0,1
sub001,./img/object-9_120-levels_1D/object9F0Level99F1Level40.png,./img/object-9_120-levels_1D/object9F0Level79F1Level40.png,./img/object-9_120-levels_1D/object9F0Level119F1Level40.png,0,0,1259.7999999970198,q,triplet_task,triplets-canvas-keyboard-response,69.0,179578.0,0.0-1.0-0.68,1.0,,,99,79,119,20,-20,-40,20,20,40,99_79_119,79,119,20,-20,-40,20,20,40,99_79_119,20_-20_-40,20_20_40,1,3,0,query_middle,79.0,ref_lowdim,nan,nan,,1
sub001,./img/object-9_120-levels_1D/object9F0Level89F1Level40.png,./img/object-9_120-levels_1D/object9F0Level59F1Level40.png,./img/object-9_120-levels_1D/object9F0Level109F1Level40.png,0,0,1063.3999999985099,p,triplet_task,triplets-canvas-keyboard-response,70.0,182093.0,0.0-1.0-0.69,1.0,True,p,89,59,109,30,-20,-50,30,20,50,89_59_109,59,109,30,-20,-50,30,20,50,89_59_109,30_-20_-50,20_30_50,1,2,10,query_middle,109.0,ref_highdim,ref_highdim,ref_right,1.0,1
sub001,./img/object-9_120-levels_1D/object9F0Level49F1Level40.png,./img/object-9_120-levels_1D/object9F0Level79F1Level40.png,./img/object-9_120-levels_1D/object9F0Level109F1Level40.png,0,0,860.3999999985099,q,triplet_task,triplets-canvas-keyboard-response,71.0,184600.0,0.0-1.0-0.70,1.0,True,q,49,79,109,-30,-60,-30,30,60,30,49_79_109,79,109,-30,-60,-30,30,60,30,49_79_109,-30_-60_-30,30_60_30,1,2,30,query_left,79.0,ref_lowdim,ref_lowdim,ref_left,1.0,1
sub001,./img/object-9_120-levels_1D/object9F0Level99F1Level40.png,./img/object-9_120-levels_1D/object9F0Level39F1Level40.png,./img/object-9_120-levels_1D/object9F0Level59F1Level40.png,0,0,1577.199999999255,p,triplet_task,triplets-canvas-keyboard-response,72.0,187108.0,0.0-1.0-0.71,1.0,True,p,99,39,59,60,40,-20,60,40,20,99_39_59,39,59,60,40,-20,60,40,20,99_39_59,60_40_-20,40_60_20,1,1,20,query_right,59.0,ref_highdim,ref_highdim,ref_right,1.0,1
sub001,./img/object-9_120-levels_1D/object9F0Level49F1Level40.png,./img/object-9_120-levels_1D/object9F0Level69F1Level40.png,./img/object-9_120-levels_1D/object9F0Level29F1Level40.png,0,0,1341.5,q,triplet_task,triplets-canvas-keyboard-response,73.0,189616.0,0.0-1.0-0.72,1.0,,,49,69,29,-20,20,40,20,20,40,49_69_29,29,69,20,-20,-40,20,20,40,49_29_69,20_-20_-40,20_20_40,1,4,0,query_middle,69.0,ref_highdim,nan,nan,,1
sub001,./img/object-9_120-levels_1D/object9F0Level109F1Level40.png,./img/object-9_120-levels_1D/object9F0Level99F1Level40.png,./img/object-9_120-levels_1D/object9F0Level89F1Level40.png,0,0,1033.699999999255,p,triplet_task,triplets-canvas-keyboard-response,74.0,192123.0,0.0-1.0-0.73,1.0,False,q,109,99,89,10,20,10,10,20,10,109_99_89,89,99,20,10,-10,20,10,10,109_89_99,20_10_-10,10_20_10,1,4,10,query_right,89.0,ref_lowdim,ref_highdim,ref_left,0.0,1
sub001,./img/object-9_120-levels_1D/object9F0Level29F1Level40.png,./img/object-9_120-levels_1D/object9F0Level49F1Level40.png,./img/object-9_120-levels_1D/object9F0Level69F1Level40.png,0,0,925.6000000014901,q,triplet_task,triplets-canvas-keyboard-response,75.0,194631.0,0.0-1.0-0.74,1.0,True,q,29,49,69,-20,-40,-20,20,40,20,29_49_69,49,69,-20,-40,-20,20,40,20,29_49_69,-20_-40_-20,20_40_20,1,2,20,query_left,49.0,ref_lowdim,ref_lowdim,ref_left,1.0,1
sub001,./img/object-9_120-levels_1D/object9F0Level69F1Level40.png,./img/object-9_120-levels_1D/object9F0Level59F1Level40.png,./img/object-9_120-levels_1D/object9F0Level109F1Level40.png,0,0,748.1999999992549,q,triplet_task,triplets-canvas-keyboard-response,76.0,197138.0,0.0-1.0-0.75,1.0,True,q,69,59,109,10,-40,-50,10,40,50,69_59_109,59,109,10,-40,-50,10,40,50,69_59_109,10_-40_-50,10_40_50,1,2,30,query_middle,59.0,ref_lowdim,ref_lowdim,ref_left,1.0,1
sub001,./img/object-9_120-levels_1D/object9F0Level79F1Level40.png,./img/object-9_120-levels_1D/object9F0Level99F1Level40.png,./img/object-9_120-levels_1D/object9F0Level19F1Level40.png,0,0,878.3000000007451,q,triplet_task,triplets-canvas-keyboard-response,77.0,199646.0,0.0-1.0-0.76,1.0,True,q,79,99,19,-20,60,80,20,60,80,79_99_19,19,99,60,-20,-80,60,20,80,79_19_99,60_-20_-80,20_60_80,1,3,40,query_middle,99.0,ref_highdim,ref_highdim,ref_left,1.0,1
sub001,./img/object-9_120-levels_1D/object9F0Level59F1Level40.png,./img/object-9_120-levels_1D/object9F0Level89F1Level40.png,./img/object-9_120-levels_1D/object9F0Level109F1Level40.png,0,0,933.0,q,triplet_task,triplets-canvas-keyboard-response,78.0,202154.0,0.0-1.0-0.77,1.0,True,q,59,89,109,-30,-50,-20,30,50,20,59_89_109,89,109,-30,-50,-20,30,50,20,59_89_109,-30_-50_-20,30_50_20,1,2,20,query_left,89.0,ref_lowdim,ref_lowdim,ref_left,1.0,1
sub001,./img/object-9_120-levels_1D/object9F0Level119F1Level40.png,./img/object-9_120-levels_1D/object9F0Level19F1Level40.png,./img/object-9_120-levels_1D/object9F0Level109F1Level40.png,0,0,694.3000000007451,p,triplet_task,triplets-canvas-keyboard-response,79.0,204657.0,0.0-1.0-0.78,1.0,True,p,119,19,109,100,10,-90,100,10,90,119_19_109,19,109,100,10,-90,100,10,90,119_19_109,100_10_-90,10_100_90,1,1,90,query_right,109.0,ref_highdim,ref_highdim,ref_right,1.0,1
sub001,./img/object-9_120-levels_1D/object9F0Level109F1Level40.png,./img/object-9_120-levels_1D/object9F0Level89F1Level40.png,./img/object-9_120-levels_1D/object9F0Level119F1Level40.png,0,0,937.5999999977648,p,triplet_task,triplets-canvas-keyboard-response,80.0,207160.0,0.0-1.0-0.79,1.0,True,p,109,89,119,20,-10,-30,20,10,30,109_89_119,89,119,20,-10,-30,20,10,30,109_89_119,20_-10_-30,10_20_30,1,2,10,query_middle,119.0,ref_highdim,ref_highdim,ref_right,1.0,1
sub001,./img/object-9_120-levels_1D/object9F0Level119F1Level40.png,./img/object-9_120-levels_1D/object9F0Level69F1Level40.png,./img/object-9_120-levels_1D/object9F0Level39F1Level40.png,0,0,896.1999999992549,q,triplet_task,triplets-canvas-keyboard-response,81.0,209668.0,0.0-1.0-0.80,1.0,True,q,119,69,39,50,80,30,50,80,30,119_69_39,39,69,80,50,-30,80,50,30,119_39_69,80_50_-30,50_80_30,1,2,30,query_right,69.0,ref_highdim,ref_highdim,ref_left,1.0,1
sub001,./img/object-9_120-levels_1D/object9F0Level29F1Level40.png,./img/object-9_120-levels_1D/object9F0Level19F1Level40.png,./img/object-9_120-levels_1D/object9F0Level49F1Level40.png,0,0,1180.7000000029802,p,triplet_task,triplets-canvas-keyboard-response,82.0,212177.0,0.0-1.0-0.81,1.0,False,q,29,19,49,10,-20,-30,10,20,30,29_19_49,19,49,10,-20,-30,10,20,30,29_19_49,10_-20_-30,10_20_30,1,1,10,query_middle,49.0,ref_highdim,ref_lowdim,ref_left,0.0,1
sub001,./img/object-9_120-levels_1D/object9F0Level79F1Level40.png,./img/object-9_120-levels_1D/object9F0Level19F1Level40.png,./img/object-9_120-levels_1D/object9F0Level39F1Level40.png,0,0,1265.0,p,triplet_task,triplets-canvas-keyboard-response,83.0,214686.0,0.0-1.0-0.82,1.0,True,p,79,19,39,60,40,-20,60,40,20,79_19_39,19,39,60,40,-20,60,40,20,79_19_39,60_40_-20,40_60_20,1,2,20,query_right,39.0,ref_highdim,ref_highdim,ref_right,1.0,1
sub001,./img/object-9_120-levels_1D/object9F0Level39F1Level40.png,./img/object-9_120-levels_1D/object9F0Level19F1Level40.png,./img/object-9_120-levels_1D/object9F0Level69F1Level40.png,0,0,1218.2999999970198,q,triplet_task,triplets-canvas-keyboard-response,1.0,7436.0,0.0-1.0-0.0,2.0,True,q,39,19,69,20,-30,-50,20,30,50,39_19_69,19,69,20,-30,-50,20,30,50,39_19_69,20_-30_-50,20_30_50,1,1,10,query_middle,19.0,ref_lowdim,ref_lowdim,ref_left,1.0,1
sub001,./img/object-9_120-levels_1D/object9F0Level79F1Level40.png,./img/object-9_120-levels_1D/object9F0Level109F1Level40.png,./img/object-9_120-levels_1D/object9F0Level39F1Level40.png,0,0,865.6000000014901,q,triplet_task,triplets-canvas-keyboard-response,2.0,9943.0,0.0-1.0-0.1,2.0,True,q,79,109,39,-30,40,70,30,40,70,79_109_39,39,109,40,-30,-70,40,30,70,79_39_109,40_-30_-70,30_40_70,1,1,10,query_middle,109.0,ref_highdim,ref_highdim,ref_left,1.0,1
sub001,./img/object-9_120-levels_1D/object9F0Level89F1Level40.png,./img/object-9_120-levels_1D/object9F0Level29F1Level40.png,./img/object-9_120-levels_1D/object9F0Level59F1Level40.png,0,0,948.3000000007451,p,triplet_task,triplets-canvas-keyboard-response,3.0,12448.0,0.0-1.0-0.2,2.0,True,p,89,29,59,60,30,-30,60,30,30,89_29_59,29,59,60,30,-30,60,30,30,89_29_59,60_30_-30,30_60_30,1,3,30,query_right,59.0,ref_highdim,ref_highdim,ref_right,1.0,1
sub001,./img/object-9_120-levels_1D/object9F0Level109F1Level40.png,./img/object-9_120-levels_1D/object9F0Level59F1Level40.png,./img/object-9_120-levels_1D/object9F0Level39F1Level40.png,0,0,763.5,q,triplet_task,triplets-canvas-keyboard-response,4.0,14958.0,0.0-1.0-0.3,2.0,True,q,109,59,39,50,70,20,50,70,20,109_59_39,39,59,70,50,-20,70,50,20,109_39_59,70_50_-20,50_70_20,1,3,20,query_right,59.0,ref_highdim,ref_highdim,ref_left,1.0,1
sub001,./img/object-9_120-levels_1D/object9F0Level99F1Level40.png,./img/object-9_120-levels_1D/object9F0Level29F1Level40.png,./img/object-9_120-levels_1D/object9F0Level79F1Level40.png,0,0,708.4000000022352,p,triplet_task,triplets-canvas-keyboard-response,5.0,17466.0,0.0-1.0-0.4,2.0,True,p,99,29,79,70,20,-50,70,20,50,99_29_79,29,79,70,20,-50,70,20,50,99_29_79,70_20_-50,20_70_50,1,2,50,query_right,79.0,ref_highdim,ref_highdim,ref_right,1.0,1
sub001,./img/object-9_120-levels_1D/object9F0Level19F1Level40.png,./img/object-9_120-levels_1D/object9F0Level79F1Level40.png,./img/object-9_120-levels_1D/object9F0Level89F1Level40.png,0,0,1176.699999999255,q,triplet_task,triplets-canvas-keyboard-response,6.0,19974.0,0.0-1.0-0.5,2.0,True,q,19,79,89,-60,-70,-10,60,70,10,19_79_89,79,89,-60,-70,-10,60,70,10,19_79_89,-60_-70_-10,60_70_10,1,1,10,query_left,79.0,ref_lowdim,ref_lowdim,ref_left,1.0,1
sub001,./img/object-9_120-levels_1D/object9F0Level39F1Level40.png,./img/object-9_120-levels_1D/object9F0Level109F1Level40.png,./img/object-9_120-levels_1D/object9F0Level59F1Level40.png,0,0,1037.300000000745,p,triplet_task,triplets-canvas-keyboard-response,7.0,22481.0,0.0-1.0-0.6,2.0,True,p,39,109,59,-70,-20,50,70,20,50,39_109_59,59,109,-20,-70,-50,20,70,50,39_59_109,-20_-70_-50,20_70_50,1,3,50,query_left,59.0,ref_lowdim,ref_lowdim,ref_right,1.0,1
sub001,./img/object-9_120-levels_1D/object9F0Level119F1Level40.png,./img/object-9_120-levels_1D/object9F0Level69F1Level40.png,./img/object-9_120-levels_1D/object9F0Level19F1Level40.png,0,0,882.0,q,triplet_task,triplets-canvas-keyboard-response,8.0,24987.0,0.0-1.0-0.7,2.0,True,q,119,69,19,50,100,50,50,100,50,119_69_19,19,69,100,50,-50,100,50,50,119_19_69,100_50_-50,50_100_50,1,1,50,query_right,69.0,ref_highdim,ref_highdim,ref_left,1.0,1
sub001,./img/object-9_120-levels_1D/object9F0Level109F1Level40.png,./img/object-9_120-levels_1D/object9F0Level99F1Level40.png,./img/object-9_120-levels_1D/object9F0Level39F1Level40.png,0,0,665.8999999985099,q,triplet_task,triplets-canvas-keyboard-response,9.0,27497.0,0.0-1.0-0.8,2.0,True,q,109,99,39,10,70,60,10,70,60,109_99_39,39,99,70,10,-60,70,10,60,109_39_99,70_10_-60,10_70_60,1,1,60,query_right,99.0,ref_highdim,ref_highdim,ref_left,1.0,1
sub001,./img/object-9_120-levels_1D/object9F0Level39F1Level40.png,./img/object-9_120-levels_1D/object9F0Level99F1Level40.png,./img/object-9_120-levels_1D/object9F0Level29F1Level40.png,0,0,681.5999999977648,p,triplet_task,triplets-canvas-keyboard-response,10.0,29999.0,0.0-1.0-0.9,2.0,True,p,39,99,29,-60,10,70,60,10,70,39_99_29,29,99,10,-60,-70,10,60,70,39_29_99,10_-60_-70,10_60_70,1,1,50,query_middle,29.0,ref_lowdim,ref_lowdim,ref_right,1.0,1
sub001,./img/object-9_120-levels_1D/object9F0Level109F1Level40.png,./img/object-9_120-levels_1D/object9F0Level59F1Level40.png,./img/object-9_120-levels_1D/object9F0Level29F1Level40.png,0,0,874.8000000007451,q,triplet_task,triplets-canvas-keyboard-response,11.0,32507.0,0.0-1.0-0.10,2.0,True,q,109,59,29,50,80,30,50,80,30,109_59_29,29,59,80,50,-30,80,50,30,109_29_59,80_50_-30,50_80_30,1,3,30,query_right,59.0,ref_highdim,ref_highdim,ref_left,1.0,1
sub001,./img/object-9_120-levels_1D/object9F0Level29F1Level40.png,./img/object-9_120-levels_1D/object9F0Level59F1Level40.png,./img/object-9_120-levels_1D/object9F0Level89F1Level40.png,0,0,825.6000000014901,q,triplet_task,triplets-canvas-keyboard-response,12.0,35010.0,0.0-1.0-0.11,2.0,True,q,29,59,89,-30,-60,-30,30,60,30,29_59_89,59,89,-30,-60,-30,30,60,30,29_59_89,-30_-60_-30,30_60_30,1,3,30,query_left,59.0,ref_lowdim,ref_lowdim,ref_left,1.0,1
sub001,./img/object-9_120-levels_1D/object9F0Level99F1Level40.png,./img/object-9_120-levels_1D/object9F0Level39F1Level40.png,./img/object-9_120-levels_1D/object9F0Level29F1Level40.png,0,0,808.5,q,triplet_task,triplets-canvas-keyboard-response,13.0,37516.0,0.0-1.0-0.12,2.0,True,q,99,39,29,60,70,10,60,70,10,99_39_29,29,39,70,60,-10,70,60,10,99_29_39,70_60_-10,60_70_10,1,1,10,query_right,39.0,ref_highdim,ref_highdim,ref_left,1.0,1
sub001,./img/object-9_120-levels_1D/object9F0Level59F1Level40.png,./img/object-9_120-levels_1D/object9F0Level49F1Level40.png,./img/object-9_120-levels_1D/object9F0Level39F1Level40.png,0,0,743.6000000014901,q,triplet_task,triplets-canvas-keyboard-response,14.0,40024.0,0.0-1.0-0.13,2.0,True,q,59,49,39,10,20,10,10,20,10,59_49_39,39,49,20,10,-10,20,10,10,59_39_49,20_10_-10,10_20_10,1,5,10,query_right,49.0,ref_highdim,ref_highdim,ref_left,1.0,1
sub001,./img/object-9_120-levels_1D/object9F0Level99F1Level40.png,./img/object-9_120-levels_1D/object9F0Level69F1Level40.png,./img/object-9_120-levels_1D/object9F0Level19F1Level40.png,0,0,729.6999999992549,q,triplet_task,triplets-canvas-keyboard-response,15.0,42532.0,0.0-1.0-0.14,2.0,True,q,99,69,19,30,80,50,30,80,50,99_69_19,19,69,80,30,-50,80,30,50,99_19_69,80_30_-50,30_80_50,1,1,50,query_right,69.0,ref_highdim,ref_highdim,ref_left,1.0,1
sub001,./img/object-9_120-levels_1D/object9F0Level89F1Level40.png,./img/object-9_120-levels_1D/object9F0Level49F1Level40.png,./img/object-9_120-levels_1D/object9F0Level39F1Level40.png,0,0,840.3000000007451,q,triplet_task,triplets-canvas-keyboard-response,16.0,45039.0,0.0-1.0-0.15,2.0,True,q,89,49,39,40,50,10,40,50,10,89_49_39,39,49,50,40,-10,50,40,10,89_39_49,50_40_-10,40_50_10,1,2,10,query_right,49.0,ref_highdim,ref_highdim,ref_left,1.0,1
sub001,./img/object-9_120-levels_1D/object9F0Level19F1Level40.png,./img/object-9_120-levels_1D/object9F0Level99F1Level40.png,./img/object-9_120-levels_1D/object9F0Level39F1Level40.png,0,0,698.5,p,triplet_task,triplets-canvas-keyboard-response,17.0,47547.0,0.0-1.0-0.16,2.0,True,p,19,99,39,-80,-20,60,80,20,60,19_99_39,39,99,-20,-80,-60,20,80,60,19_39_99,-20_-80_-60,20_80_60,1,1,60,query_left,39.0,ref_lowdim,ref_lowdim,ref_right,1.0,1
sub001,./img/object-9_120-levels_1D/object9F0Level69F1Level40.png,./img/object-9_120-levels_1D/object9F0Level59F1Level40.png,./img/object-9_120-levels_1D/object9F0Level99F1Level40.png,0,0,776.1999999992549,p,triplet_task,triplets-canvas-keyboard-response,18.0,50055.0,0.0-1.0-0.17,2.0,False,q,69,59,99,10,-30,-40,10,30,40,69_59_99,59,99,10,-30,-40,10,30,40,69_59_99,10_-30_-40,10_30_40,1,2,20,query_middle,99.0,ref_highdim,ref_lowdim,ref_left,0.0,1
sub001,./img/object-9_120-levels_1D/object9F0Level89F1Level40.png,./img/object-9_120-levels_1D/object9F0Level19F1Level40.png,./img/object-9_120-levels_1D/object9F0Level119F1Level40.png,0,0,762.6999999992549,p,triplet_task,triplets-canvas-keyboard-response,19.0,52562.0,0.0-1.0-0.18,2.0,True,p,89,19,119,70,-30,-100,70,30,100,89_19_119,19,119,70,-30,-100,70,30,100,89_19_119,70_-30_-100,30_70_100,1,1,40,query_middle,119.0,ref_highdim,ref_highdim,ref_right,1.0,1
sub001,./img/object-9_120-levels_1D/object9F0Level29F1Level40.png,./img/object-9_120-levels_1D/object9F0Level89F1Level40.png,./img/object-9_120-levels_1D/object9F0Level49F1Level40.png,0,0,657.3000000007451,p,triplet_task,triplets-canvas-keyboard-response,20.0,55076.0,0.0-1.0-0.19,2.0,True,p,29,89,49,-60,-20,40,60,20,40,29_89_49,49,89,-20,-60,-40,20,60,40,29_49_89,-20_-60_-40,20_60_40,1,1,40,query_left,49.0,ref_lowdim,ref_lowdim,ref_right,1.0,1
sub001,./img/object-9_120-levels_1D/object9F0Level89F1Level40.png,./img/object-9_120-levels_1D/object9F0Level99F1Level40.png,./img/object-9_120-levels_1D/object9F0Level59F1Level40.png,0,0,933.8999999985099,p,triplet_task,triplets-canvas-keyboard-response,21.0,57582.0,0.0-1.0-0.20,2.0,False,q,89,99,59,-10,30,40,10,30,40,89_99_59,59,99,30,-10,-40,30,10,40,89_59_99,30_-10_-40,10_30_40,1,2,20,query_middle,59.0,ref_lowdim,ref_highdim,ref_left,0.0,1
sub001,./img/object-9_120-levels_1D/object9F0Level79F1Level40.png,./img/object-9_120-levels_1D/object9F0Level99F1Level40.png,./img/object-9_120-levels_1D/object9F0Level119F1Level40.png,0,0,1315.199999999255,q,triplet_task,triplets-canvas-keyboard-response,22.0,60091.0,0.0-1.0-0.21,2.0,True,q,79,99,119,-20,-40,-20,20,40,20,79_99_119,99,119,-20,-40,-20,20,40,20,79_99_119,-20_-40_-20,20_40_20,1,3,20,query_left,99.0,ref_lowdim,ref_lowdim,ref_left,1.0,1
sub001,./img/object-9_120-levels_1D/object9F0Level29F1Level40.png,./img/object-9_120-levels_1D/object9F0Level109F1Level40.png,./img/object-9_120-levels_1D/object9F0Level79F1Level40.png,0,0,1230.0,p,triplet_task,triplets-canvas-keyboard-response,23.0,62599.0,0.0-1.0-0.22,2.0,True,p,29,109,79,-80,-50,30,80,50,30,29_109_79,79,109,-50,-80,-30,50,80,30,29_79_109,-50_-80_-30,50_80_30,1,1,30,query_left,79.0,ref_lowdim,ref_lowdim,ref_right,1.0,1
sub001,./img/object-9_120-levels_1D/object9F0Level39F1Level40.png,./img/object-9_120-levels_1D/object9F0Level29F1Level40.png,./img/object-9_120-levels_1D/object9F0Level79F1Level40.png,0,0,714.1999999992549,q,triplet_task,triplets-canvas-keyboard-response,24.0,65106.0,0.0-1.0-0.23,2.0,True,q,39,29,79,10,-40,-50,10,40,50,39_29_79,29,79,10,-40,-50,10,40,50,39_29_79,10_-40_-50,10_40_50,1,3,30,query_middle,29.0,ref_lowdim,ref_lowdim,ref_left,1.0,1
sub001,./img/object-9_120-levels_1D/object9F0Level109F1Level40.png,./img/object-9_120-levels_1D/object9F0Level19F1Level40.png,./img/object-9_120-levels_1D/object9F0Level89F1Level40.png,0,0,654.3999999985099,p,triplet_task,triplets-canvas-keyboard-response,25.0,67614.0,0.0-1.0-0.24,2.0,True,p,109,19,89,90,20,-70,90,20,70,109_19_89,19,89,90,20,-70,90,20,70,109_19_89,90_20_-70,20_90_70,1,2,70,query_right,89.0,ref_highdim,ref_highdim,ref_right,1.0,1
sub001,./img/object-9_120-levels_1D/object9F0Level99F1Level40.png,./img/object-9_120-levels_1D/object9F0Level89F1Level40.png,./img/object-9_120-levels_1D/object9F0Level119F1Level40.png,0,0,1106.800000000745,q,triplet_task,triplets-canvas-keyboard-response,26.0,70122.0,0.0-1.0-0.25,2.0,True,q,99,89,119,10,-20,-30,10,20,30,99_89_119,89,119,10,-20,-30,10,20,30,99_89_119,10_-20_-30,10_20_30,1,2,10,query_middle,89.0,ref_lowdim,ref_lowdim,ref_left,1.0,1
sub001,./img/object-9_120-levels_1D/object9F0Level119F1Level40.png,./img/object-9_120-levels_1D/object9F0Level49F1Level40.png,./img/object-9_120-levels_1D/object9F0Level59F1Level40.png,0,0,1353.0,q,triplet_task,triplets-canvas-keyboard-response,27.0,72629.0,0.0-1.0-0.26,2.0,False,p,119,49,59,70,60,-10,70,60,10,119_49_59,49,59,70,60,-10,70,60,10,119_49_59,70_60_-10,60_70_10,1,2,10,query_right,49.0,ref_lowdim,ref_highdim,ref_right,0.0,1
sub001,./img/object-9_120-levels_1D/object9F0Level79F1Level40.png,./img/object-9_120-levels_1D/object9F0Level39F1Level40.png,./img/object-9_120-levels_1D/object9F0Level89F1Level40.png,0,0,1043.199999999255,p,triplet_task,triplets-canvas-keyboard-response,28.0,75137.0,0.0-1.0-0.27,2.0,True,p,79,39,89,40,-10,-50,40,10,50,79_39_89,39,89,40,-10,-50,40,10,50,79_39_89,40_-10_-50,10_40_50,1,2,30,query_middle,89.0,ref_highdim,ref_highdim,ref_right,1.0,1
sub001,./img/object-9_120-levels_1D/object9F0Level29F1Level40.png,./img/object-9_120-levels_1D/object9F0Level19F1Level40.png,./img/object-9_120-levels_1D/object9F0Level39F1Level40.png,0,0,1063.5999999977648,q,triplet_task,triplets-canvas-keyboard-response,29.0,77645.0,0.0-1.0-0.28,2.0,,,29,19,39,10,-10,-20,10,10,20,29_19_39,19,39,10,-10,-20,10,10,20,29_19_39,10_-10_-20,10_10_20,1,1,0,query_middle,19.0,ref_lowdim,nan,nan,,1
sub001,./img/object-9_120-levels_1D/object9F0Level69F1Level40.png,./img/object-9_120-levels_1D/object9F0Level49F1Level40.png,./img/object-9_120-levels_1D/object9F0Level19F1Level40.png,0,0,789.5,q,triplet_task,triplets-canvas-keyboard-response,30.0,80148.0,0.0-1.0-0.29,2.0,True,q,69,49,19,20,50,30,20,50,30,69_49_19,19,49,50,20,-30,50,20,30,69_19_49,50_20_-30,20_50_30,1,1,30,query_right,49.0,ref_highdim,ref_highdim,ref_left,1.0,1
sub001,./img/object-9_120-levels_1D/object9F0Level39F1Level40.png,./img/object-9_120-levels_1D/object9F0Level69F1Level40.png,./img/object-9_120-levels_1D/object9F0Level29F1Level40.png,0,0,828.6999999992549,p,triplet_task,triplets-canvas-keyboard-response,31.0,82654.0,0.0-1.0-0.30,2.0,True,p,39,69,29,-30,10,40,30,10,40,39_69_29,29,69,10,-30,-40,10,30,40,39_29_69,10_-30_-40,10_30_40,1,3,20,query_middle,29.0,ref_lowdim,ref_lowdim,ref_right,1.0,1
sub001,./img/object-9_120-levels_1D/object9F0Level109F1Level40.png,./img/object-9_120-levels_1D/object9F0Level29F1Level40.png,./img/object-9_120-levels_1D/object9F0Level119F1Level40.png,0,0,764.0999999977648,p,triplet_task,triplets-canvas-keyboard-response,32.0,85161.0,0.0-1.0-0.31,2.0,True,p,109,29,119,80,-10,-90,80,10,90,109_29_119,29,119,80,-10,-90,80,10,90,109_29_119,80_-10_-90,10_80_90,1,1,70,query_middle,119.0,ref_highdim,ref_highdim,ref_right,1.0,1
sub001,./img/object-9_120-levels_1D/object9F0Level29F1Level40.png,./img/object-9_120-levels_1D/object9F0Level69F1Level40.png,./img/object-9_120-levels_1D/object9F0Level19F1Level40.png,0,0,686.5999999977648,p,triplet_task,triplets-canvas-keyboard-response,33.0,87669.0,0.0-1.0-0.32,2.0,True,p,29,69,19,-40,10,50,40,10,50,29_69_19,19,69,10,-40,-50,10,40,50,29_19_69,10_-40_-50,10_40_50,1,4,30,query_middle,19.0,ref_lowdim,ref_lowdim,ref_right,1.0,1
sub001,./img/object-9_120-levels_1D/object9F0Level79F1Level40.png,./img/object-9_120-levels_1D/object9F0Level49F1Level40.png,./img/object-9_120-levels_1D/object9F0Level109F1Level40.png,0,0,978.3000000007451,q,triplet_task,triplets-canvas-keyboard-response,34.0,90177.0,0.0-1.0-0.33,2.0,,,79,49,109,30,-30,-60,30,30,60,79_49_109,49,109,30,-30,-60,30,30,60,79_49_109,30_-30_-60,30_30_60,1,2,0,query_middle,49.0,ref_lowdim,nan,nan,,1
sub001,./img/object-9_120-levels_1D/object9F0Level19F1Level40.png,./img/object-9_120-levels_1D/object9F0Level29F1Level40.png,./img/object-9_120-levels_1D/object9F0Level69F1Level40.png,0,0,912.8000000007451,q,triplet_task,triplets-canvas-keyboard-response,35.0,92685.0,0.0-1.0-0.34,2.0,True,q,19,29,69,-10,-50,-40,10,50,40,19_29_69,29,69,-10,-50,-40,10,50,40,19_29_69,-10_-50_-40,10_50_40,1,2,40,query_left,29.0,ref_lowdim,ref_lowdim,ref_left,1.0,1
sub001,./img/object-9_120-levels_1D/object9F0Level109F1Level40.png,./img/object-9_120-levels_1D/object9F0Level19F1Level40.png,./img/object-9_120-levels_1D/object9F0Level59F1Level40.png,0,0,771.0,p,triplet_task,triplets-canvas-keyboard-response,36.0,95192.0,0.0-1.0-0.35,2.0,True,p,109,19,59,90,50,-40,90,50,40,109_19_59,19,59,90,50,-40,90,50,40,109_19_59,90_50_-40,50_90_40,1,2,40,query_right,59.0,ref_highdim,ref_highdim,ref_right,1.0,1
sub001,./img/object-9_120-levels_1D/object9F0Level69F1Level40.png,./img/object-9_120-levels_1D/object9F0Level119F1Level40.png,./img/object-9_120-levels_1D/object9F0Level59F1Level40.png,0,0,609.3999999985099,p,triplet_task,triplets-canvas-keyboard-response,37.0,97700.0,0.0-1.0-0.36,2.0,True,p,69,119,59,-50,10,60,50,10,60,69_119_59,59,119,10,-50,-60,10,50,60,69_59_119,10_-50_-60,10_50_60,1,1,40,query_middle,59.0,ref_lowdim,ref_lowdim,ref_right,1.0,1
sub001,./img/object-9_120-levels_1D/object9F0Level109F1Level40.png,./img/object-9_120-levels_1D/object9F0Level69F1Level40.png,./img/object-9_120-levels_1D/object9F0Level89F1Level40.png,0,0,579.1999999992549,p,triplet_task,triplets-canvas-keyboard-response,38.0,100207.0,0.0-1.0-0.37,2.0,True,p,109,69,89,40,20,-20,40,20,20,109_69_89,69,89,40,20,-20,40,20,20,109_69_89,40_20_-20,20_40_20,1,1,20,query_right,89.0,ref_highdim,ref_highdim,ref_right,1.0,1
sub001,./img/object-9_120-levels_1D/object9F0Level39F1Level40.png,./img/object-9_120-levels_1D/object9F0Level99F1Level40.png,./img/object-9_120-levels_1D/object9F0Level89F1Level40.png,0,0,1538.0,p,triplet_task,triplets-canvas-keyboard-response,39.0,102715.0,0.0-1.0-0.38,2.0,True,p,39,99,89,-60,-50,10,60,50,10,39_99_89,89,99,-50,-60,-10,50,60,10,39_89_99,-50_-60_-10,50_60_10,1,1,10,query_left,89.0,ref_lowdim,ref_lowdim,ref_right,1.0,1
sub001,./img/object-9_120-levels_1D/object9F0Level109F1Level40.png,./img/object-9_120-levels_1D/object9F0Level79F1Level40.png,./img/object-9_120-levels_1D/object9F0Level69F1Level40.png,0,0,1252.199999999255,q,triplet_task,triplets-canvas-keyboard-response,40.0,105218.0,0.0-1.0-0.39,2.0,True,q,109,79,69,30,40,10,30,40,10,109_79_69,69,79,40,30,-10,40,30,10,109_69_79,40_30_-10,30_40_10,1,2,10,query_right,79.0,ref_highdim,ref_highdim,ref_left,1.0,1
sub001,./img/object-9_120-levels_1D/object9F0Level89F1Level40.png,./img/object-9_120-levels_1D/object9F0Level19F1Level40.png,./img/object-9_120-levels_1D/object9F0Level49F1Level40.png,0,0,1007.3999999985099,q,triplet_task,triplets-canvas-keyboard-response,41.0,107733.0,0.0-1.0-0.40,2.0,False,p,89,19,49,70,40,-30,70,40,30,89_19_49,19,49,70,40,-30,70,40,30,89_19_49,70_40_-30,40_70_30,1,1,30,query_right,19.0,ref_lowdim,ref_highdim,ref_right,0.0,1
sub001,./img/object-9_120-levels_1D/object9F0Level69F1Level40.png,./img/object-9_120-levels_1D/object9F0Level109F1Level40.png,./img/object-9_120-levels_1D/object9F0Level19F1Level40.png,0,0,1217.5999999977648,q,triplet_task,triplets-canvas-keyboard-response,42.0,110241.0,0.0-1.0-0.41,2.0,True,q,69,109,19,-40,50,90,40,50,90,69_109_19,19,109,50,-40,-90,50,40,90,69_19_109,50_-40_-90,40_50_90,1,1,10,query_middle,109.0,ref_highdim,ref_highdim,ref_left,1.0,1
sub001,./img/object-9_120-levels_1D/object9F0Level49F1Level40.png,./img/object-9_120-levels_1D/object9F0Level119F1Level40.png,./img/object-9_120-levels_1D/object9F0Level79F1Level40.png,0,0,926.2999999970198,p,triplet_task,triplets-canvas-keyboard-response,43.0,112751.0,0.0-1.0-0.42,2.0,True,p,49,119,79,-70,-30,40,70,30,40,49_119_79,79,119,-30,-70,-40,30,70,40,49_79_119,-30_-70_-40,30_70_40,1,2,40,query_left,79.0,ref_lowdim,ref_lowdim,ref_right,1.0,1
sub001,./img/object-9_120-levels_1D/object9F0Level39F1Level40.png,./img/object-9_120-levels_1D/object9F0Level19F1Level40.png,./img/object-9_120-levels_1D/object9F0Level119F1Level40.png,0,0,735.5,q,triplet_task,triplets-canvas-keyboard-response,44.0,115255.0,0.0-1.0-0.43,2.0,True,q,39,19,119,20,-80,-100,20,80,100,39_19_119,19,119,20,-80,-100,20,80,100,39_19_119,20_-80_-100,20_80_100,1,1,60,query_middle,19.0,ref_lowdim,ref_lowdim,ref_left,1.0,1
sub001,./img/object-9_120-levels_1D/object9F0Level49F1Level40.png,./img/object-9_120-levels_1D/object9F0Level69F1Level40.png,./img/object-9_120-levels_1D/object9F0Level39F1Level40.png,0,0,799.8999999985099,p,triplet_task,triplets-canvas-keyboard-response,45.0,117756.0,0.0-1.0-0.44,2.0,True,p,49,69,39,-20,10,30,20,10,30,49_69_39,39,69,10,-20,-30,10,20,30,49_39_69,10_-20_-30,10_20_30,1,3,10,query_middle,39.0,ref_lowdim,ref_lowdim,ref_right,1.0,1
sub001,./img/object-9_120-levels_1D/object9F0Level29F1Level40.png,./img/object-9_120-levels_1D/object9F0Level59F1Level40.png,./img/object-9_120-levels_1D/object9F0Level39F1Level40.png,0,0,684.1000000014901,p,triplet_task,triplets-canvas-keyboard-response,46.0,120261.0,0.0-1.0-0.45,2.0,True,p,29,59,39,-30,-10,20,30,10,20,29_59_39,39,59,-10,-30,-20,10,30,20,29_39_59,-10_-30_-20,10_30_20,1,3,20,query_left,39.0,ref_lowdim,ref_lowdim,ref_right,1.0,1
sub001,./img/object-9_120-levels_1D/object9F0Level89F1Level40.png,./img/object-9_120-levels_1D/object9F0Level119F1Level40.png,./img/object-9_120-levels_1D/object9F0Level29F1Level40.png,0,0,601.3000000007451,q,triplet_task,triplets-canvas-keyboard-response,47.0,122770.0,0.0-1.0-0.46,2.0,True,q,89,119,29,-30,60,90,30,60,90,89_119_29,29,119,60,-30,-90,60,30,90,89_29_119,60_-30_-90,30_60_90,1,1,30,query_middle,119.0,ref_highdim,ref_highdim,ref_left,1.0,1
sub001,./img/object-9_120-levels_1D/object9F0Level59F1Level40.png,./img/object-9_120-levels_1D/object9F0Level79F1Level40.png,./img/object-9_120-levels_1D/object9F0Level109F1Level40.png,0,0,934.0,q,triplet_task,triplets-canvas-keyboard-response,48.0,125275.0,0.0-1.0-0.47,2.0,True,q,59,79,109,-20,-50,-30,20,50,30,59_79_109,79,109,-20,-50,-30,20,50,30,59_79_109,-20_-50_-30,20_50_30,1,2,30,query_left,79.0,ref_lowdim,ref_lowdim,ref_left,1.0,1
sub001,./img/object-9_120-levels_1D/object9F0Level19F1Level40.png,./img/object-9_120-levels_1D/object9F0Level49F1Level40.png,./img/object-9_120-levels_1D/object9F0Level39F1Level40.png,0,0,786.9000000022352,p,triplet_task,triplets-canvas-keyboard-response,49.0,127791.0,0.0-1.0-0.48,2.0,True,p,19,49,39,-30,-20,10,30,20,10,19_49_39,39,49,-20,-30,-10,20,30,10,19_39_49,-20_-30_-10,20_30_10,1,2,10,query_left,39.0,ref_lowdim,ref_lowdim,ref_right,1.0,1
sub001,./img/object-9_120-levels_1D/object9F0Level39F1Level40.png,./img/object-9_120-levels_1D/object9F0Level89F1Level40.png,./img/object-9_120-levels_1D/object9F0Level119F1Level40.png,0,0,1150.800000000745,q,triplet_task,triplets-canvas-keyboard-response,50.0,130299.0,0.0-1.0-0.49,2.0,True,q,39,89,119,-50,-80,-30,50,80,30,39_89_119,89,119,-50,-80,-30,50,80,30,39_89_119,-50_-80_-30,50_80_30,1,2,30,query_left,89.0,ref_lowdim,ref_lowdim,ref_left,1.0,1
sub001,./img/object-9_120-levels_1D/object9F0Level19F1Level40.png,./img/object-9_120-levels_1D/object9F0Level69F1Level40.png,./img/object-9_120-levels_1D/object9F0Level109F1Level40.png,0,0,980.6999999992549,q,triplet_task,triplets-canvas-keyboard-response,51.0,132807.0,0.0-1.0-0.50,2.0,True,q,19,69,109,-50,-90,-40,50,90,40,19_69_109,69,109,-50,-90,-40,50,90,40,19_69_109,-50_-90_-40,50_90_40,1,1,40,query_left,69.0,ref_lowdim,ref_lowdim,ref_left,1.0,1
sub001,./img/object-9_120-levels_1D/object9F0Level49F1Level40.png,./img/object-9_120-levels_1D/object9F0Level79F1Level40.png,./img/object-9_120-levels_1D/object9F0Level69F1Level40.png,0,0,903.1000000014901,p,triplet_task,triplets-canvas-keyboard-response,52.0,135314.0,0.0-1.0-0.51,2.0,True,p,49,79,69,-30,-20,10,30,20,10,49_79_69,69,79,-20,-30,-10,20,30,10,49_69_79,-20_-30_-10,20_30_10,1,3,10,query_left,69.0,ref_lowdim,ref_lowdim,ref_right,1.0,1
sub001,./img/object-9_120-levels_1D/object9F0Level69F1Level40.png,./img/object-9_120-levels_1D/object9F0Level19F1Level40.png,./img/object-9_120-levels_1D/object9F0Level119F1Level40.png,0,0,883.5,q,triplet_task,triplets-canvas-keyboard-response,53.0,137817.0,0.0-1.0-0.52,2.0,,,69,19,119,50,-50,-100,50,50,100,69_19_119,19,119,50,-50,-100,50,50,100,69_19_119,50_-50_-100,50_50_100,1,1,0,query_middle,19.0,ref_lowdim,nan,nan,,1
sub001,./img/object-9_120-levels_1D/object9F0Level39F1Level40.png,./img/object-9_120-levels_1D/object9F0Level79F1Level40.png,./img/object-9_120-levels_1D/object9F0Level89F1Level40.png,0,0,1029.8999999985099,q,triplet_task,triplets-canvas-keyboard-response,54.0,140321.0,0.0-1.0-0.53,2.0,True,q,39,79,89,-40,-50,-10,40,50,10,39_79_89,79,89,-40,-50,-10,40,50,10,39_79_89,-40_-50_-10,40_50_10,1,3,10,query_left,79.0,ref_lowdim,ref_lowdim,ref_left,1.0,1
sub001,./img/object-9_120-levels_1D/object9F0Level49F1Level40.png,./img/object-9_120-levels_1D/object9F0Level79F1Level40.png,./img/object-9_120-levels_1D/object9F0Level89F1Level40.png,0,0,996.8000000007451,q,triplet_task,triplets-canvas-keyboard-response,55.0,142829.0,0.0-1.0-0.54,2.0,True,q,49,79,89,-30,-40,-10,30,40,10,49_79_89,79,89,-30,-40,-10,30,40,10,49_79_89,-30_-40_-10,30_40_10,1,2,10,query_left,79.0,ref_lowdim,ref_lowdim,ref_left,1.0,1
sub001,./img/object-9_120-levels_1D/object9F0Level19F1Level40.png,./img/object-9_120-levels_1D/object9F0Level49F1Level40.png,./img/object-9_120-levels_1D/object9F0Level99F1Level40.png,0,0,794.8000000007451,q,triplet_task,triplets-canvas-keyboard-response,56.0,145336.0,0.0-1.0-0.55,2.0,True,q,19,49,99,-30,-80,-50,30,80,50,19_49_99,49,99,-30,-80,-50,30,80,50,19_49_99,-30_-80_-50,30_80_50,1,1,50,query_left,49.0,ref_lowdim,ref_lowdim,ref_left,1.0,1
sub001,./img/object-9_120-levels_1D/object9F0Level69F1Level40.png,./img/object-9_120-levels_1D/object9F0Level19F1Level40.png,./img/object-9_120-levels_1D/object9F0Level29F1Level40.png,0,0,877.0,q,triplet_task,triplets-canvas-keyboard-response,57.0,147844.0,0.0-1.0-0.56,2.0,False,p,69,19,29,50,40,-10,50,40,10,69_19_29,19,29,50,40,-10,50,40,10,69_19_29,50_40_-10,40_50_10,1,3,10,query_right,19.0,ref_lowdim,ref_highdim,ref_right,0.0,1
sub001,./img/object-9_120-levels_1D/object9F0Level29F1Level40.png,./img/object-9_120-levels_1D/object9F0Level79F1Level40.png,./img/object-9_120-levels_1D/object9F0Level59F1Level40.png,0,0,825.1999999992549,p,triplet_task,triplets-canvas-keyboard-response,58.0,150353.0,0.0-1.0-0.57,2.0,True,p,29,79,59,-50,-30,20,50,30,20,29_79_59,59,79,-30,-50,-20,30,50,20,29_59_79,-30_-50_-20,30_50_20,1,3,20,query_left,59.0,ref_lowdim,ref_lowdim,ref_right,1.0,1
sub001,./img/object-9_120-levels_1D/object9F0Level79F1Level40.png,./img/object-9_120-levels_1D/object9F0Level69F1Level40.png,./img/object-9_120-levels_1D/object9F0Level59F1Level40.png,0,0,694.0,p,triplet_task,triplets-canvas-keyboard-response,59.0,152862.0,0.0-1.0-0.58,2.0,False,q,79,69,59,10,20,10,10,20,10,79_69_59,59,69,20,10,-10,20,10,10,79_59_69,20_10_-10,10_20_10,1,6,10,query_right,59.0,ref_lowdim,ref_highdim,ref_left,0.0,1
sub001,./img/object-9_120-levels_1D/object9F0Level19F1Level40.png,./img/object-9_120-levels_1D/object9F0Level49F1Level40.png,./img/object-9_120-levels_1D/object9F0Level69F1Level40.png,0,0,910.9000000022352,q,triplet_task,triplets-canvas-keyboard-response,60.0,155370.0,0.0-1.0-0.59,2.0,True,q,19,49,69,-30,-50,-20,30,50,20,19_49_69,49,69,-30,-50,-20,30,50,20,19_49_69,-30_-50_-20,30_50_20,1,4,20,query_left,49.0,ref_lowdim,ref_lowdim,ref_left,1.0,1
sub001,./img/object-9_120-levels_1D/object9F0Level69F1Level40.png,./img/object-9_120-levels_1D/object9F0Level79F1Level40.png,./img/object-9_120-levels_1D/object9F0Level49F1Level40.png,0,0,983.5,q,triplet_task,triplets-canvas-keyboard-response,61.0,157883.0,0.0-1.0-0.60,2.0,True,q,69,79,49,-10,20,30,10,20,30,69_79_49,49,79,20,-10,-30,20,10,30,69_49_79,20_-10_-30,10_20_30,1,3,10,query_middle,79.0,ref_highdim,ref_highdim,ref_left,1.0,1
sub001,./img/object-9_120-levels_1D/object9F0Level49F1Level40.png,./img/object-9_120-levels_1D/object9F0Level59F1Level40.png,./img/object-9_120-levels_1D/object9F0Level89F1Level40.png,0,0,1145.5,q,triplet_task,triplets-canvas-keyboard-response,62.0,160391.0,0.0-1.0-0.61,2.0,True,q,49,59,89,-10,-40,-30,10,40,30,49_59_89,59,89,-10,-40,-30,10,40,30,49_59_89,-10_-40_-30,10_40_30,1,2,30,query_left,59.0,ref_lowdim,ref_lowdim,ref_left,1.0,1
sub001,./img/object-9_120-levels_1D/object9F0Level109F1Level40.png,./img/object-9_120-levels_1D/object9F0Level29F1Level40.png,./img/object-9_120-levels_1D/object9F0Level39F1Level40.png,0,0,1159.5,q,triplet_task,triplets-canvas-keyboard-response,63.0,162898.0,0.0-1.0-0.62,2.0,False,p,109,29,39,80,70,-10,80,70,10,109_29_39,29,39,80,70,-10,80,70,10,109_29_39,80_70_-10,70_80_10,1,2,10,query_right,29.0,ref_lowdim,ref_highdim,ref_right,0.0,1
sub001,./img/object-9_120-levels_1D/object9F0Level39F1Level40.png,./img/object-9_120-levels_1D/object9F0Level59F1Level40.png,./img/object-9_120-levels_1D/object9F0Level119F1Level40.png,0,0,946.1999999992549,q,triplet_task,triplets-canvas-keyboard-response,64.0,165406.0,0.0-1.0-0.63,2.0,True,q,39,59,119,-20,-80,-60,20,80,60,39_59_119,59,119,-20,-80,-60,20,80,60,39_59_119,-20_-80_-60,20_80_60,1,2,60,query_left,59.0,ref_lowdim,ref_lowdim,ref_left,1.0,1
sub001,./img/object-9_120-levels_1D/object9F0Level29F1Level40.png,./img/object-9_120-levels_1D/object9F0Level89F1Level40.png,./img/object-9_120-levels_1D/object9F0Level99F1Level40.png,0,0,1079.800000000745,q,triplet_task,triplets-canvas-keyboard-response,65.0,167914.0,0.0-1.0-0.64,2.0,True,q,29,89,99,-60,-70,-10,60,70,10,29_89_99,89,99,-60,-70,-10,60,70,10,29_89_99,-60_-70_-10,60_70_10,1,2,10,query_left,89.0,ref_lowdim,ref_lowdim,ref_left,1.0,1
sub001,./img/object-9_120-levels_1D/object9F0Level69F1Level40.png,./img/object-9_120-levels_1D/object9F0Level89F1Level40.png,./img/object-9_120-levels_1D/object9F0Level19F1Level40.png,0,0,810.3000000007451,p,triplet_task,triplets-canvas-keyboard-response,66.0,170418.0,0.0-1.0-0.65,2.0,False,q,69,89,19,-20,50,70,20,50,70,69_89_19,19,89,50,-20,-70,50,20,70,69_19_89,50_-20_-70,20_50_70,1,1,30,query_middle,19.0,ref_lowdim,ref_highdim,ref_left,0.0,1
sub001,./img/object-9_120-levels_1D/object9F0Level99F1Level40.png,./img/object-9_120-levels_1D/object9F0Level59F1Level40.png,./img/object-9_120-levels_1D/object9F0Level19F1Level40.png,0,0,809.6999999992549,q,triplet_task,triplets-canvas-keyboard-response,67.0,172923.0,0.0-1.0-0.66,2.0,True,q,99,59,19,40,80,40,40,80,40,99_59_19,19,59,80,40,-40,80,40,40,99_19_59,80_40_-40,40_80_40,1,2,40,query_right,59.0,ref_highdim,ref_highdim,ref_left,1.0,1
sub001,./img/object-9_120-levels_1D/object9F0Level39F1Level40.png,./img/object-9_120-levels_1D/object9F0Level19F1Level40.png,./img/object-9_120-levels_1D/object9F0Level89F1Level40.png,0,0,714.5999999977648,q,triplet_task,triplets-canvas-keyboard-response,68.0,175428.0,0.0-1.0-0.67,2.0,True,q,39,19,89,20,-50,-70,20,50,70,39_19_89,19,89,20,-50,-70,20,50,70,39_19_89,20_-50_-70,20_50_70,1,1,30,query_middle,19.0,ref_lowdim,ref_lowdim,ref_left,1.0,1
sub001,./img/object-9_120-levels_1D/object9F0Level119F1Level40.png,./img/object-9_120-levels_1D/object9F0Level59F1Level40.png,./img/object-9_120-levels_1D/object9F0Level29F1Level40.png,0,0,823.5,q,triplet_task,triplets-canvas-keyboard-response,69.0,177939.0,0.0-1.0-0.68,2.0,True,q,119,59,29,60,90,30,60,90,30,119_59_29,29,59,90,60,-30,90,60,30,119_29_59,90_60_-30,60_90_30,1,1,30,query_right,59.0,ref_highdim,ref_highdim,ref_left,1.0,1
sub001,./img/object-9_120-levels_1D/object9F0Level99F1Level40.png,./img/object-9_120-levels_1D/object9F0Level39F1Level40.png,./img/object-9_120-levels_1D/object9F0Level79F1Level40.png,0,0,825.4000000022352,p,triplet_task,triplets-canvas-keyboard-response,70.0,180446.0,0.0-1.0-0.69,2.0,True,p,99,39,79,60,20,-40,60,20,40,99_39_79,39,79,60,20,-40,60,20,40,99_39_79,60_20_-40,20_60_40,1,1,40,query_right,79.0,ref_highdim,ref_highdim,ref_right,1.0,1
sub001,./img/object-9_120-levels_1D/object9F0Level39F1Level40.png,./img/object-9_120-levels_1D/object9F0Level109F1Level40.png,./img/object-9_120-levels_1D/object9F0Level119F1Level40.png,0,0,925.5,q,triplet_task,triplets-canvas-keyboard-response,71.0,182954.0,0.0-1.0-0.70,2.0,True,q,39,109,119,-70,-80,-10,70,80,10,39_109_119,109,119,-70,-80,-10,70,80,10,39_109_119,-70_-80_-10,70_80_10,1,1,10,query_left,109.0,ref_lowdim,ref_lowdim,ref_left,1.0,1
sub001,./img/object-9_120-levels_1D/object9F0Level79F1Level40.png,./img/object-9_120-levels_1D/object9F0Level39F1Level40.png,./img/object-9_120-levels_1D/object9F0Level69F1Level40.png,0,0,1001.6999999992549,p,triplet_task,triplets-canvas-keyboard-response,72.0,185462.0,0.0-1.0-0.71,2.0,True,p,79,39,69,40,10,-30,40,10,30,79_39_69,39,69,40,10,-30,40,10,30,79_39_69,40_10_-30,10_40_30,1,1,30,query_right,69.0,ref_highdim,ref_highdim,ref_right,1.0,1
sub001,./img/object-9_120-levels_1D/object9F0Level59F1Level40.png,./img/object-9_120-levels_1D/object9F0Level79F1Level40.png,./img/object-9_120-levels_1D/object9F0Level119F1Level40.png,0,0,727.6000000014901,q,triplet_task,triplets-canvas-keyboard-response,73.0,187975.0,0.0-1.0-0.72,2.0,True,q,59,79,119,-20,-60,-40,20,60,40,59_79_119,79,119,-20,-60,-40,20,60,40,59_79_119,-20_-60_-40,20_60_40,1,2,40,query_left,79.0,ref_lowdim,ref_lowdim,ref_left,1.0,1
sub001,./img/object-9_120-levels_1D/object9F0Level49F1Level40.png,./img/object-9_120-levels_1D/object9F0Level69F1Level40.png,./img/object-9_120-levels_1D/object9F0Level89F1Level40.png,0,0,862.0999999977648,q,triplet_task,triplets-canvas-keyboard-response,74.0,190485.0,0.0-1.0-0.73,2.0,True,q,49,69,89,-20,-40,-20,20,40,20,49_69_89,69,89,-20,-40,-20,20,40,20,49_69_89,-20_-40_-20,20_40_20,1,4,20,query_left,69.0,ref_lowdim,ref_lowdim,ref_left,1.0,1
sub001,./img/object-9_120-levels_1D/object9F0Level89F1Level40.png,./img/object-9_120-levels_1D/object9F0Level119F1Level40.png,./img/object-9_120-levels_1D/object9F0Level99F1Level40.png,0,0,1302.2000000029802,p,triplet_task,triplets-canvas-keyboard-response,75.0,192990.0,0.0-1.0-0.74,2.0,True,p,89,119,99,-30,-10,20,30,10,20,89_119_99,99,119,-10,-30,-20,10,30,20,89_99_119,-10_-30_-20,10_30_20,1,4,20,query_left,99.0,ref_lowdim,ref_lowdim,ref_right,1.0,1
sub001,./img/object-9_120-levels_1D/object9F0Level79F1Level40.png,./img/object-9_120-levels_1D/object9F0Level49F1Level40.png,./img/object-9_120-levels_1D/object9F0Level99F1Level40.png,0,0,1094.9000000022352,p,triplet_task,triplets-canvas-keyboard-response,76.0,195498.0,0.0-1.0-0.75,2.0,True,p,79,49,99,30,-20,-50,30,20,50,79_49_99,49,99,30,-20,-50,30,20,50,79_49_99,30_-20_-50,20_30_50,1,3,10,query_middle,99.0,ref_highdim,ref_highdim,ref_right,1.0,1
sub001,./img/object-9_120-levels_1D/object9F0Level99F1Level40.png,./img/object-9_120-levels_1D/object9F0Level119F1Level40.png,./img/object-9_120-levels_1D/object9F0Level19F1Level40.png,0,0,584.8999999985099,q,triplet_task,triplets-canvas-keyboard-response,77.0,198002.0,0.0-1.0-0.76,2.0,True,q,99,119,19,-20,80,100,20,80,100,99_119_19,19,119,80,-20,-100,80,20,100,99_19_119,80_-20_-100,20_80_100,1,1,60,query_middle,119.0,ref_highdim,ref_highdim,ref_left,1.0,1
sub001,./img/object-9_120-levels_1D/object9F0Level89F1Level40.png,./img/object-9_120-levels_1D/object9F0Level29F1Level40.png,./img/object-9_120-levels_1D/object9F0Level19F1Level40.png,0,0,874.6999999992549,q,triplet_task,triplets-canvas-keyboard-response,78.0,200507.0,0.0-1.0-0.77,2.0,True,q,89,29,19,60,70,10,60,70,10,89_29_19,19,29,70,60,-10,70,60,10,89_19_29,70_60_-10,60_70_10,1,3,10,query_right,29.0,ref_highdim,ref_highdim,ref_left,1.0,1
sub001,./img/object-9_120-levels_1D/object9F0Level19F1Level40.png,./img/object-9_120-levels_1D/object9F0Level119F1Level40.png,./img/object-9_120-levels_1D/object9F0Level69F1Level40.png,0,0,927.5,p,triplet_task,triplets-canvas-keyboard-response,79.0,203012.0,0.0-1.0-0.78,2.0,True,p,19,119,69,-100,-50,50,100,50,50,19_119_69,69,119,-50,-100,-50,50,100,50,19_69_119,-50_-100_-50,50_100_50,1,1,50,query_left,69.0,ref_lowdim,ref_lowdim,ref_right,1.0,1
sub001,./img/object-9_120-levels_1D/object9F0Level49F1Level40.png,./img/object-9_120-levels_1D/object9F0Level29F1Level40.png,./img/object-9_120-levels_1D/object9F0Level89F1Level40.png,0,0,942.8000000007451,q,triplet_task,triplets-canvas-keyboard-response,80.0,205521.0,0.0-1.0-0.79,2.0,True,q,49,29,89,20,-40,-60,20,40,60,49_29_89,29,89,20,-40,-60,20,40,60,49_29_89,20_-40_-60,20_40_60,1,1,20,query_middle,29.0,ref_lowdim,ref_lowdim,ref_left,1.0,1
sub001,./img/object-9_120-levels_1D/object9F0Level119F1Level40.png,./img/object-9_120-levels_1D/object9F0Level49F1Level40.png,./img/object-9_120-levels_1D/object9F0Level29F1Level40.png,0,0,819.0,q,triplet_task,triplets-canvas-keyboard-response,81.0,208030.0,0.0-1.0-0.80,2.0,True,q,119,49,29,70,90,20,70,90,20,119_49_29,29,49,90,70,-20,90,70,20,119_29_49,90_70_-20,70_90_20,1,1,20,query_right,49.0,ref_highdim,ref_highdim,ref_left,1.0,1
sub001,./img/object-9_120-levels_1D/object9F0Level69F1Level40.png,./img/object-9_120-levels_1D/object9F0Level59F1Level40.png,./img/object-9_120-levels_1D/object9F0Level29F1Level40.png,0,0,828.1999999992549,q,triplet_task,triplets-canvas-keyboard-response,82.0,210538.0,0.0-1.0-0.81,2.0,True,q,69,59,29,10,40,30,10,40,30,69_59_29,29,59,40,10,-30,40,10,30,69_29_59,40_10_-30,10_40_30,1,2,30,query_right,59.0,ref_highdim,ref_highdim,ref_left,1.0,1
sub001,./img/object-9_120-levels_1D/object9F0Level39F1Level40.png,./img/object-9_120-levels_1D/object9F0Level109F1Level40.png,./img/object-9_120-levels_1D/object9F0Level49F1Level40.png,0,0,648.3999999985099,p,triplet_task,triplets-canvas-keyboard-response,83.0,213045.0,0.0-1.0-0.82,2.0,True,p,39,109,49,-70,-10,60,70,10,60,39_109_49,49,109,-10,-70,-60,10,70,60,39_49_109,-10_-70_-60,10_70_60,1,2,60,query_left,49.0,ref_lowdim,ref_lowdim,ref_right,1.0,1
sub001,./img/object-9_120-levels_1D/object9F0Level119F1Level40.png,./img/object-9_120-levels_1D/object9F0Level39F1Level40.png,./img/object-9_120-levels_1D/object9F0Level19F1Level40.png,0,0,1168.6000000014901,q,triplet_task,triplets-canvas-keyboard-response,1.0,7346.0,0.0-1.0-0.0,3.0,True,q,119,39,19,80,100,20,80,100,20,119_39_19,19,39,100,80,-20,100,80,20,119_19_39,100_80_-20,80_100_20,1,1,20,query_right,39.0,ref_highdim,ref_highdim,ref_left,1.0,1
sub001,./img/object-9_120-levels_1D/object9F0Level29F1Level40.png,./img/object-9_120-levels_1D/object9F0Level59F1Level40.png,./img/object-9_120-levels_1D/object9F0Level19F1Level40.png,0,0,760.5,p,triplet_task,triplets-canvas-keyboard-response,2.0,9848.0,0.0-1.0-0.1,3.0,True,p,29,59,19,-30,10,40,30,10,40,29_59_19,19,59,10,-30,-40,10,30,40,29_19_59,10_-30_-40,10_30_40,1,4,20,query_middle,19.0,ref_lowdim,ref_lowdim,ref_right,1.0,1
sub001,./img/object-9_120-levels_1D/object9F0Level19F1Level40.png,./img/object-9_120-levels_1D/object9F0Level89F1Level40.png,./img/object-9_120-levels_1D/object9F0Level109F1Level40.png,0,0,947.1999999992549,q,triplet_task,triplets-canvas-keyboard-response,3.0,12356.0,0.0-1.0-0.2,3.0,True,q,19,89,109,-70,-90,-20,70,90,20,19_89_109,89,109,-70,-90,-20,70,90,20,19_89_109,-70_-90_-20,70_90_20,1,2,20,query_left,89.0,ref_lowdim,ref_lowdim,ref_left,1.0,1
sub001,./img/object-9_120-levels_1D/object9F0Level39F1Level40.png,./img/object-9_120-levels_1D/object9F0Level19F1Level40.png,./img/object-9_120-levels_1D/object9F0Level59F1Level40.png,0,0,705.1000000014901,q,triplet_task,triplets-canvas-keyboard-response,4.0,14858.0,0.0-1.0-0.3,3.0,,,39,19,59,20,-20,-40,20,20,40,39_19_59,19,59,20,-20,-40,20,20,40,39_19_59,20_-20_-40,20_20_40,1,5,0,query_middle,19.0,ref_lowdim,nan,nan,,1
sub001,./img/object-9_120-levels_1D/object9F0Level89F1Level40.png,./img/object-9_120-levels_1D/object9F0Level29F1Level40.png,./img/object-9_120-levels_1D/object9F0Level49F1Level40.png,0,0,1176.699999999255,q,triplet_task,triplets-canvas-keyboard-response,5.0,17362.0,0.0-1.0-0.4,3.0,False,p,89,29,49,60,40,-20,60,40,20,89_29_49,29,49,60,40,-20,60,40,20,89_29_49,60_40_-20,40_60_20,1,3,20,query_right,29.0,ref_lowdim,ref_highdim,ref_right,0.0,1
sub001,./img/object-9_120-levels_1D/object9F0Level69F1Level40.png,./img/object-9_120-levels_1D/object9F0Level39F1Level40.png,./img/object-9_120-levels_1D/object9F0Level109F1Level40.png,0,0,1536.699999999255,p,triplet_task,triplets-canvas-keyboard-response,6.0,19867.0,0.0-1.0-0.5,3.0,False,q,69,39,109,30,-40,-70,30,40,70,69_39_109,39,109,30,-40,-70,30,40,70,69_39_109,30_-40_-70,30_40_70,1,1,10,query_middle,109.0,ref_highdim,ref_lowdim,ref_left,0.0,1
sub001,./img/object-9_120-levels_1D/object9F0Level109F1Level40.png,./img/object-9_120-levels_1D/object9F0Level29F1Level40.png,./img/object-9_120-levels_1D/object9F0Level79F1Level40.png,0,0,697.5,p,triplet_task,triplets-canvas-keyboard-response,7.0,22375.0,0.0-1.0-0.6,3.0,True,p,109,29,79,80,30,-50,80,30,50,109_29_79,29,79,80,30,-50,80,30,50,109_29_79,80_30_-50,30_80_50,1,2,50,query_right,79.0,ref_highdim,ref_highdim,ref_right,1.0,1
sub001,./img/object-9_120-levels_1D/object9F0Level39F1Level40.png,./img/object-9_120-levels_1D/object9F0Level69F1Level40.png,./img/object-9_120-levels_1D/object9F0Level109F1Level40.png,0,0,787.8000000007451,q,triplet_task,triplets-canvas-keyboard-response,8.0,24881.0,0.0-1.0-0.7,3.0,True,q,39,69,109,-30,-70,-40,30,70,40,39_69_109,69,109,-30,-70,-40,30,70,40,39_69_109,-30_-70_-40,30_70_40,1,3,40,query_left,69.0,ref_lowdim,ref_lowdim,ref_left,1.0,1
sub001,./img/object-9_120-levels_1D/object9F0Level119F1Level40.png,./img/object-9_120-levels_1D/object9F0Level79F1Level40.png,./img/object-9_120-levels_1D/object9F0Level19F1Level40.png,0,0,579.8999999985099,q,triplet_task,triplets-canvas-keyboard-response,9.0,27390.0,0.0-1.0-0.8,3.0,True,q,119,79,19,40,100,60,40,100,60,119_79_19,19,79,100,40,-60,100,40,60,119_19_79,100_40_-60,40_100_60,1,1,60,query_right,79.0,ref_highdim,ref_highdim,ref_left,1.0,1
sub001,./img/object-9_120-levels_1D/object9F0Level49F1Level40.png,./img/object-9_120-levels_1D/object9F0Level19F1Level40.png,./img/object-9_120-levels_1D/object9F0Level99F1Level40.png,0,0,691.9000000022352,q,triplet_task,triplets-canvas-keyboard-response,10.0,29899.0,0.0-1.0-0.9,3.0,True,q,49,19,99,30,-50,-80,30,50,80,49_19_99,19,99,30,-50,-80,30,50,80,49_19_99,30_-50_-80,30_50_80,1,1,20,query_middle,19.0,ref_lowdim,ref_lowdim,ref_left,1.0,1
sub001,./img/object-9_120-levels_1D/object9F0Level89F1Level40.png,./img/object-9_120-levels_1D/object9F0Level79F1Level40.png,./img/object-9_120-levels_1D/object9F0Level39F1Level40.png,0,0,569.1999999992549,q,triplet_task,triplets-canvas-keyboard-response,11.0,32406.0,0.0-1.0-0.10,3.0,True,q,89,79,39,10,50,40,10,50,40,89_79_39,39,79,50,10,-40,50,10,40,89_39_79,50_10_-40,10_50_40,1,2,40,query_right,79.0,ref_highdim,ref_highdim,ref_left,1.0,1
sub001,./img/object-9_120-levels_1D/object9F0Level69F1Level40.png,./img/object-9_120-levels_1D/object9F0Level59F1Level40.png,./img/object-9_120-levels_1D/object9F0Level39F1Level40.png,0,0,541.1999999992549,q,triplet_task,triplets-canvas-keyboard-response,12.0,34914.0,0.0-1.0-0.11,3.0,True,q,69,59,39,10,30,20,10,30,20,69_59_39,39,59,30,10,-20,30,10,20,69_39_59,30_10_-20,10_30_20,1,1,20,query_right,59.0,ref_highdim,ref_highdim,ref_left,1.0,1
sub001,./img/object-9_120-levels_1D/object9F0Level119F1Level40.png,./img/object-9_120-levels_1D/object9F0Level69F1Level40.png,./img/object-9_120-levels_1D/object9F0Level59F1Level40.png,0,0,658.0,q,triplet_task,triplets-canvas-keyboard-response,13.0,37422.0,0.0-1.0-0.12,3.0,True,q,119,69,59,50,60,10,50,60,10,119_69_59,59,69,60,50,-10,60,50,10,119_59_69,60_50_-10,50_60_10,1,2,10,query_right,69.0,ref_highdim,ref_highdim,ref_left,1.0,1
sub001,./img/object-9_120-levels_1D/object9F0Level109F1Level40.png,./img/object-9_120-levels_1D/object9F0Level39F1Level40.png,./img/object-9_120-levels_1D/object9F0Level119F1Level40.png,0,0,851.9000000022352,p,triplet_task,triplets-canvas-keyboard-response,14.0,39926.0,0.0-1.0-0.13,3.0,True,p,109,39,119,70,-10,-80,70,10,80,109_39_119,39,119,70,-10,-80,70,10,80,109_39_119,70_-10_-80,10_70_80,1,1,60,query_middle,119.0,ref_highdim,ref_highdim,ref_right,1.0,1
sub001,./img/object-9_120-levels_1D/object9F0Level69F1Level40.png,./img/object-9_120-levels_1D/object9F0Level99F1Level40.png,./img/object-9_120-levels_1D/object9F0Level29F1Level40.png,0,0,941.5999999977648,p,triplet_task,triplets-canvas-keyboard-response,15.0,42433.0,0.0-1.0-0.14,3.0,False,q,69,99,29,-30,40,70,30,40,70,69_99_29,29,99,40,-30,-70,40,30,70,69_29_99,40_-30_-70,30_40_70,1,2,10,query_middle,29.0,ref_lowdim,ref_highdim,ref_left,0.0,1
sub001,./img/object-9_120-levels_1D/object9F0Level89F1Level40.png,./img/object-9_120-levels_1D/object9F0Level39F1Level40.png,./img/object-9_120-levels_1D/object9F0Level29F1Level40.png,0,0,864.7999999970198,q,triplet_task,triplets-canvas-keyboard-response,16.0,44942.0,0.0-1.0-0.15,3.0,True,q,89,39,29,50,60,10,50,60,10,89_39_29,29,39,60,50,-10,60,50,10,89_29_39,60_50_-10,50_60_10,1,3,10,query_right,39.0,ref_highdim,ref_highdim,ref_left,1.0,1
sub001,./img/object-9_120-levels_1D/object9F0Level119F1Level40.png,./img/object-9_120-levels_1D/object9F0Level19F1Level40.png,./img/object-9_120-levels_1D/object9F0Level89F1Level40.png,0,0,635.7999999970198,p,triplet_task,triplets-canvas-keyboard-response,17.0,47451.0,0.0-1.0-0.16,3.0,True,p,119,19,89,100,30,-70,100,30,70,119_19_89,19,89,100,30,-70,100,30,70,119_19_89,100_30_-70,30_100_70,1,1,70,query_right,89.0,ref_highdim,ref_highdim,ref_right,1.0,1
sub001,./img/object-9_120-levels_1D/object9F0Level39F1Level40.png,./img/object-9_120-levels_1D/object9F0Level79F1Level40.png,./img/object-9_120-levels_1D/object9F0Level49F1Level40.png,0,0,592.5,p,triplet_task,triplets-canvas-keyboard-response,18.0,49960.0,0.0-1.0-0.17,3.0,True,p,39,79,49,-40,-10,30,40,10,30,39_79_49,49,79,-10,-40,-30,10,40,30,39_49_79,-10_-40_-30,10_40_30,1,3,30,query_left,49.0,ref_lowdim,ref_lowdim,ref_right,1.0,1
sub001,./img/object-9_120-levels_1D/object9F0Level109F1Level40.png,./img/object-9_120-levels_1D/object9F0Level49F1Level40.png,./img/object-9_120-levels_1D/object9F0Level29F1Level40.png,0,0,745.6000000014901,q,triplet_task,triplets-canvas-keyboard-response,19.0,52468.0,0.0-1.0-0.18,3.0,True,q,109,49,29,60,80,20,60,80,20,109_49_29,29,49,80,60,-20,80,60,20,109_29_49,80_60_-20,60_80_20,1,1,20,query_right,49.0,ref_highdim,ref_highdim,ref_left,1.0,1
sub001,./img/object-9_120-levels_1D/object9F0Level79F1Level40.png,./img/object-9_120-levels_1D/object9F0Level49F1Level40.png,./img/object-9_120-levels_1D/object9F0Level119F1Level40.png,0,0,645.6999999992549,p,triplet_task,triplets-canvas-keyboard-response,20.0,54975.0,0.0-1.0-0.19,3.0,False,q,79,49,119,30,-40,-70,30,40,70,79_49_119,49,119,30,-40,-70,30,40,70,79_49_119,30_-40_-70,30_40_70,1,2,10,query_middle,119.0,ref_highdim,ref_lowdim,ref_left,0.0,1
sub001,./img/object-9_120-levels_1D/object9F0Level119F1Level40.png,./img/object-9_120-levels_1D/object9F0Level79F1Level40.png,./img/object-9_120-levels_1D/object9F0Level29F1Level40.png,0,0,601.8000000007451,q,triplet_task,triplets-canvas-keyboard-response,21.0,57483.0,0.0-1.0-0.20,3.0,True,q,119,79,29,40,90,50,40,90,50,119_79_29,29,79,90,40,-50,90,40,50,119_29_79,90_40_-50,40_90_50,1,2,50,query_right,79.0,ref_highdim,ref_highdim,ref_left,1.0,1
sub001,./img/object-9_120-levels_1D/object9F0Level109F1Level40.png,./img/object-9_120-levels_1D/object9F0Level119F1Level40.png,./img/object-9_120-levels_1D/object9F0Level49F1Level40.png,0,0,528.1000000014901,q,triplet_task,triplets-canvas-keyboard-response,22.0,59997.0,0.0-1.0-0.21,3.0,True,q,109,119,49,-10,60,70,10,60,70,109_119_49,49,119,60,-10,-70,60,10,70,109_49_119,60_-10_-70,10_60_70,1,1,50,query_middle,119.0,ref_highdim,ref_highdim,ref_left,1.0,1
sub001,./img/object-9_120-levels_1D/object9F0Level119F1Level40.png,./img/object-9_120-levels_1D/object9F0Level109F1Level40.png,./img/object-9_120-levels_1D/object9F0Level99F1Level40.png,0,0,1235.3999999985099,q,triplet_task,triplets-canvas-keyboard-response,23.0,62504.0,0.0-1.0-0.22,3.0,True,q,119,109,99,10,20,10,10,20,10,119_109_99,99,109,20,10,-10,20,10,10,119_99_109,20_10_-10,10_20_10,1,7,10,query_right,109.0,ref_highdim,ref_highdim,ref_left,1.0,1
sub001,./img/object-9_120-levels_1D/object9F0Level99F1Level40.png,./img/object-9_120-levels_1D/object9F0Level69F1Level40.png,./img/object-9_120-levels_1D/object9F0Level109F1Level40.png,0,0,913.1000000014901,p,triplet_task,triplets-canvas-keyboard-response,24.0,65012.0,0.0-1.0-0.23,3.0,True,p,99,69,109,30,-10,-40,30,10,40,99_69_109,69,109,30,-10,-40,30,10,40,99_69_109,30_-10_-40,10_30_40,1,3,20,query_middle,109.0,ref_highdim,ref_highdim,ref_right,1.0,1
sub001,./img/object-9_120-levels_1D/object9F0Level49F1Level40.png,./img/object-9_120-levels_1D/object9F0Level39F1Level40.png,./img/object-9_120-levels_1D/object9F0Level29F1Level40.png,0,0,509.19999999925494,q,triplet_task,triplets-canvas-keyboard-response,25.0,67519.0,0.0-1.0-0.24,3.0,True,q,49,39,29,10,20,10,10,20,10,49_39_29,29,39,20,10,-10,20,10,10,49_29_39,20_10_-10,10_20_10,1,8,10,query_right,39.0,ref_highdim,ref_highdim,ref_left,1.0,1
sub001,./img/object-9_120-levels_1D/object9F0Level69F1Level40.png,./img/object-9_120-levels_1D/object9F0Level19F1Level40.png,./img/object-9_120-levels_1D/object9F0Level39F1Level40.png,0,0,1017.3000000007451,p,triplet_task,triplets-canvas-keyboard-response,26.0,70027.0,0.0-1.0-0.25,3.0,True,p,69,19,39,50,30,-20,50,30,20,69_19_39,19,39,50,30,-20,50,30,20,69_19_39,50_30_-20,30_50_20,1,2,20,query_right,39.0,ref_highdim,ref_highdim,ref_right,1.0,1
sub001,./img/object-9_120-levels_1D/object9F0Level19F1Level40.png,./img/object-9_120-levels_1D/object9F0Level49F1Level40.png,./img/object-9_120-levels_1D/object9F0Level89F1Level40.png,0,0,1183.5,p,triplet_task,triplets-canvas-keyboard-response,27.0,72535.0,0.0-1.0-0.26,3.0,False,q,19,49,89,-30,-70,-40,30,70,40,19_49_89,49,89,-30,-70,-40,30,70,40,19_49_89,-30_-70_-40,30_70_40,1,4,40,query_left,89.0,ref_highdim,ref_lowdim,ref_left,0.0,1
sub001,./img/object-9_120-levels_1D/object9F0Level99F1Level40.png,./img/object-9_120-levels_1D/object9F0Level59F1Level40.png,./img/object-9_120-levels_1D/object9F0Level79F1Level40.png,0,0,905.8000000007451,p,triplet_task,triplets-canvas-keyboard-response,28.0,75039.0,0.0-1.0-0.27,3.0,True,p,99,59,79,40,20,-20,40,20,20,99_59_79,59,79,40,20,-20,40,20,20,99_59_79,40_20_-20,20_40_20,1,2,20,query_right,79.0,ref_highdim,ref_highdim,ref_right,1.0,1
sub001,./img/object-9_120-levels_1D/object9F0Level29F1Level40.png,./img/object-9_120-levels_1D/object9F0Level69F1Level40.png,./img/object-9_120-levels_1D/object9F0Level39F1Level40.png,0,0,651.6999999992549,p,triplet_task,triplets-canvas-keyboard-response,29.0,77546.0,0.0-1.0-0.28,3.0,True,p,29,69,39,-40,-10,30,40,10,30,29_69_39,39,69,-10,-40,-30,10,40,30,29_39_69,-10_-40_-30,10_40_30,1,4,30,query_left,39.0,ref_lowdim,ref_lowdim,ref_right,1.0,1
sub001,./img/object-9_120-levels_1D/object9F0Level89F1Level40.png,./img/object-9_120-levels_1D/object9F0Level109F1Level40.png,./img/object-9_120-levels_1D/object9F0Level69F1Level40.png,0,0,1133.8999999985099,q,triplet_task,triplets-canvas-keyboard-response,30.0,80057.0,0.0-1.0-0.29,3.0,,,89,109,69,-20,20,40,20,20,40,89_109_69,69,109,20,-20,-40,20,20,40,89_69_109,20_-20_-40,20_20_40,1,6,0,query_middle,109.0,ref_highdim,nan,nan,,1
sub001,./img/object-9_120-levels_1D/object9F0Level99F1Level40.png,./img/object-9_120-levels_1D/object9F0Level109F1Level40.png,./img/object-9_120-levels_1D/object9F0Level89F1Level40.png,0,0,1166.3999999985099,p,triplet_task,triplets-canvas-keyboard-response,31.0,82565.0,0.0-1.0-0.30,3.0,,,99,109,89,-10,10,20,10,10,20,99_109_89,89,109,10,-10,-20,10,10,20,99_89_109,10_-10_-20,10_10_20,1,2,0,query_middle,89.0,ref_lowdim,nan,nan,,1
sub001,./img/object-9_120-levels_1D/object9F0Level69F1Level40.png,./img/object-9_120-levels_1D/object9F0Level99F1Level40.png,./img/object-9_120-levels_1D/object9F0Level109F1Level40.png,0,0,1154.699999999255,q,triplet_task,triplets-canvas-keyboard-response,32.0,85073.0,0.0-1.0-0.31,3.0,True,q,69,99,109,-30,-40,-10,30,40,10,69_99_109,99,109,-30,-40,-10,30,40,10,69_99_109,-30_-40_-10,30_40_10,1,3,10,query_left,99.0,ref_lowdim,ref_lowdim,ref_left,1.0,1
sub001,./img/object-9_120-levels_1D/object9F0Level119F1Level40.png,./img/object-9_120-levels_1D/object9F0Level39F1Level40.png,./img/object-9_120-levels_1D/object9F0Level49F1Level40.png,0,0,1513.0999999977648,q,triplet_task,triplets-canvas-keyboard-response,33.0,87580.0,0.0-1.0-0.32,3.0,False,p,119,39,49,80,70,-10,80,70,10,119_39_49,39,49,80,70,-10,80,70,10,119_39_49,80_70_-10,70_80_10,1,3,10,query_right,39.0,ref_lowdim,ref_highdim,ref_right,0.0,1
sub001,./img/object-9_120-levels_1D/object9F0Level19F1Level40.png,./img/object-9_120-levels_1D/object9F0Level89F1Level40.png,./img/object-9_120-levels_1D/object9F0Level59F1Level40.png,0,0,923.1999999992549,p,triplet_task,triplets-canvas-keyboard-response,34.0,90088.0,0.0-1.0-0.33,3.0,True,p,19,89,59,-70,-40,30,70,40,30,19_89_59,59,89,-40,-70,-30,40,70,30,19_59_89,-40_-70_-30,40_70_30,1,2,30,query_left,59.0,ref_lowdim,ref_lowdim,ref_right,1.0,1
sub001,./img/object-9_120-levels_1D/object9F0Level99F1Level40.png,./img/object-9_120-levels_1D/object9F0Level69F1Level40.png,./img/object-9_120-levels_1D/object9F0Level39F1Level40.png,0,0,1071.699999999255,q,triplet_task,triplets-canvas-keyboard-response,35.0,92596.0,0.0-1.0-0.34,3.0,True,q,99,69,39,30,60,30,30,60,30,99_69_39,39,69,60,30,-30,60,30,30,99_39_69,60_30_-30,30_60_30,1,4,30,query_right,69.0,ref_highdim,ref_highdim,ref_left,1.0,1
sub001,./img/object-9_120-levels_1D/object9F0Level89F1Level40.png,./img/object-9_120-levels_1D/object9F0Level99F1Level40.png,./img/object-9_120-levels_1D/object9F0Level79F1Level40.png,0,0,1061.699999999255,q,triplet_task,triplets-canvas-keyboard-response,36.0,95103.0,0.0-1.0-0.35,3.0,,,89,99,79,-10,10,20,10,10,20,89_99_79,79,99,10,-10,-20,10,10,20,89_79_99,10_-10_-20,10_10_20,1,3,0,query_middle,99.0,ref_highdim,nan,nan,,1
sub001,./img/object-9_120-levels_1D/object9F0Level19F1Level40.png,./img/object-9_120-levels_1D/object9F0Level59F1Level40.png,./img/object-9_120-levels_1D/object9F0Level49F1Level40.png,0,0,840.0,p,triplet_task,triplets-canvas-keyboard-response,37.0,97609.0,0.0-1.0-0.36,3.0,True,p,19,59,49,-40,-30,10,40,30,10,19_59_49,49,59,-30,-40,-10,30,40,10,19_49_59,-30_-40_-10,30_40_10,1,4,10,query_left,49.0,ref_lowdim,ref_lowdim,ref_right,1.0,1
sub001,./img/object-9_120-levels_1D/object9F0Level69F1Level40.png,./img/object-9_120-levels_1D/object9F0Level79F1Level40.png,./img/object-9_120-levels_1D/object9F0Level59F1Level40.png,0,0,1160.0999999977648,p,triplet_task,triplets-canvas-keyboard-response,38.0,100114.0,0.0-1.0-0.37,3.0,,,69,79,59,-10,10,20,10,10,20,69_79_59,59,79,10,-10,-20,10,10,20,69_59_79,10_-10_-20,10_10_20,1,4,0,query_middle,59.0,ref_lowdim,nan,nan,,1
sub001,./img/object-9_120-levels_1D/object9F0Level89F1Level40.png,./img/object-9_120-levels_1D/object9F0Level49F1Level40.png,./img/object-9_120-levels_1D/object9F0Level99F1Level40.png,0,0,901.0,p,triplet_task,triplets-canvas-keyboard-response,39.0,102618.0,0.0-1.0-0.38,3.0,True,p,89,49,99,40,-10,-50,40,10,50,89_49_99,49,99,40,-10,-50,40,10,50,89_49_99,40_-10_-50,10_40_50,1,3,30,query_middle,99.0,ref_highdim,ref_highdim,ref_right,1.0,1
sub001,./img/object-9_120-levels_1D/object9F0Level109F1Level40.png,./img/object-9_120-levels_1D/object9F0Level119F1Level40.png,./img/object-9_120-levels_1D/object9F0Level79F1Level40.png,0,0,852.8999999985099,q,triplet_task,triplets-canvas-keyboard-response,40.0,105125.0,0.0-1.0-0.39,3.0,True,q,109,119,79,-10,30,40,10,30,40,109_119_79,79,119,30,-10,-40,30,10,40,109_79_119,30_-10_-40,10_30_40,1,4,20,query_middle,119.0,ref_highdim,ref_highdim,ref_left,1.0,1
sub001,./img/object-9_120-levels_1D/object9F0Level79F1Level40.png,./img/object-9_120-levels_1D/object9F0Level49F1Level40.png,./img/object-9_120-levels_1D/object9F0Level29F1Level40.png,0,0,1020.0,q,triplet_task,triplets-canvas-keyboard-response,41.0,107634.0,0.0-1.0-0.40,3.0,True,q,79,49,29,30,50,20,30,50,20,79_49_29,29,49,50,30,-20,50,30,20,79_29_49,50_30_-20,30_50_20,1,3,20,query_right,49.0,ref_highdim,ref_highdim,ref_left,1.0,1
sub001,./img/object-9_120-levels_1D/object9F0Level109F1Level40.png,./img/object-9_120-levels_1D/object9F0Level69F1Level40.png,./img/object-9_120-levels_1D/object9F0Level39F1Level40.png,0,0,908.5,q,triplet_task,triplets-canvas-keyboard-response,42.0,110143.0,0.0-1.0-0.41,3.0,True,q,109,69,39,40,70,30,40,70,30,109_69_39,39,69,70,40,-30,70,40,30,109_39_69,70_40_-30,40_70_30,1,2,30,query_right,69.0,ref_highdim,ref_highdim,ref_left,1.0,1
sub001,./img/object-9_120-levels_1D/object9F0Level29F1Level40.png,./img/object-9_120-levels_1D/object9F0Level119F1Level40.png,./img/object-9_120-levels_1D/object9F0Level39F1Level40.png,0,0,607.3999999985099,p,triplet_task,triplets-canvas-keyboard-response,43.0,112651.0,0.0-1.0-0.42,3.0,True,p,29,119,39,-90,-10,80,90,10,80,29_119_39,39,119,-10,-90,-80,10,90,80,29_39_119,-10_-90_-80,10_90_80,1,1,80,query_left,39.0,ref_lowdim,ref_lowdim,ref_right,1.0,1
sub001,./img/object-9_120-levels_1D/object9F0Level79F1Level40.png,./img/object-9_120-levels_1D/object9F0Level59F1Level40.png,./img/object-9_120-levels_1D/object9F0Level39F1Level40.png,0,0,723.5,q,triplet_task,triplets-canvas-keyboard-response,44.0,115159.0,0.0-1.0-0.43,3.0,True,q,79,59,39,20,40,20,20,40,20,79_59_39,39,59,40,20,-20,40,20,20,79_39_59,40_20_-20,20_40_20,1,3,20,query_right,59.0,ref_highdim,ref_highdim,ref_left,1.0,1
sub001,./img/object-9_120-levels_1D/object9F0Level109F1Level40.png,./img/object-9_120-levels_1D/object9F0Level39F1Level40.png,./img/object-9_120-levels_1D/object9F0Level49F1Level40.png,0,0,1217.800000000745,q,triplet_task,triplets-canvas-keyboard-response,45.0,117666.0,0.0-1.0-0.44,3.0,False,p,109,39,49,70,60,-10,70,60,10,109_39_49,39,49,70,60,-10,70,60,10,109_39_49,70_60_-10,60_70_10,1,4,10,query_right,39.0,ref_lowdim,ref_highdim,ref_right,0.0,1
sub001,./img/object-9_120-levels_1D/object9F0Level99F1Level40.png,./img/object-9_120-levels_1D/object9F0Level119F1Level40.png,./img/object-9_120-levels_1D/object9F0Level49F1Level40.png,0,0,907.6000000014901,q,triplet_task,triplets-canvas-keyboard-response,46.0,120174.0,0.0-1.0-0.45,3.0,True,q,99,119,49,-20,50,70,20,50,70,99_119_49,49,119,50,-20,-70,50,20,70,99_49_119,50_-20_-70,20_50_70,1,2,30,query_middle,119.0,ref_highdim,ref_highdim,ref_left,1.0,1
